"","trial","outcome_condition","rt","chose_risky","key_pressed","reward","color","session","total_earned","participant","condition","video","age","gender","risk_first_to_mind","total_risk","judged_percent","total_judged","confidence","block","last_risk","experiment","door_choice","risk_break_trials"
"1:1",1,"first_win",29,1,"left",1,"4","first_time",0.025,"cd1","Control","Restaurant",31,"F",2.5,0.43,0,200,8,1,NA,"Gain",0,"(0,20]"
"1:2",2,"first_win",9,1,"left",0,"4","first_time",0.025,"cd1","Control","Restaurant",31,"F",2.5,0.43,0,200,8,1,1,"Gain",0,"(0,20]"
"1:3",3,"first_win",6,1,"left",1,"4","first_time",0.05,"cd1","Control","Restaurant",31,"F",2.5,0.43,0,200,8,1,0,"Gain",0,"(0,20]"
"1:4",4,"first_win",73,1,"left",0,"4","first_time",0.05,"cd1","Control","Restaurant",31,"F",2.5,0.43,0,200,8,1,1,"Gain",0,"(0,20]"
"1:5",5,"first_win",108,1,"left",1,"4","first_time",0.075,"cd1","Control","Restaurant",31,"F",2.5,0.43,0,200,8,1,0,"Gain",0,"(0,20]"
"1:6",6,"first_win",165,0,"right",0.5,"3","first_time",0.0875,"cd1","Control","Restaurant",31,"F",2.5,0.43,0,200,8,1,1,"Gain",1,"(0,20]"
"1:7",7,"first_win",169,1,"left",0,"4","first_time",0.0875,"cd1","Control","Restaurant",31,"F",2.5,0.43,0,200,8,1,1,"Gain",0,"(0,20]"
"1:8",8,"first_win",60,1,"left",0,"4","first_time",0.0875,"cd1","Control","Restaurant",31,"F",2.5,0.43,0,200,8,1,0,"Gain",0,"(0,20]"
"1:9",9,"first_win",161,1,"left",0,"4","first_time",0.0875,"cd1","Control","Restaurant",31,"F",2.5,0.43,0,200,8,1,0,"Gain",0,"(0,20]"
"1:10",10,"first_win",15,1,"left",1,"4","first_time",0.1125,"cd1","Control","Restaurant",31,"F",2.5,0.43,0,200,8,1,0,"Gain",0,"(0,20]"
"1:11",11,"first_win",121,0,"right",0.5,"3","first_time",0.125,"cd1","Control","Restaurant",31,"F",2.5,0.43,0,200,8,1,1,"Gain",1,"(0,20]"
"1:12",12,"first_win",130,0,"right",0.5,"3","first_time",0.1375,"cd1","Control","Restaurant",31,"F",2.5,0.43,0,200,8,1,1,"Gain",1,"(0,20]"
"1:13",13,"first_win",147,0,"right",0.5,"3","first_time",0.15,"cd1","Control","Restaurant",31,"F",2.5,0.43,0,200,8,1,1,"Gain",1,"(0,20]"
"1:14",14,"first_win",153,1,"left",1,"4","first_time",0.175,"cd1","Control","Restaurant",31,"F",2.5,0.43,0,200,8,1,1,"Gain",0,"(0,20]"
"1:15",15,"first_win",101,0,"right",0.5,"3","first_time",0.1875,"cd1","Control","Restaurant",31,"F",2.5,0.43,0,200,8,1,1,"Gain",1,"(0,20]"
"1:16",16,"first_win",152,0,"right",0.5,"3","first_time",0.2,"cd1","Control","Restaurant",31,"F",2.5,0.43,0,200,8,1,1,"Gain",1,"(0,20]"
"1:17",17,"first_win",145,0,"right",0.5,"3","first_time",0.2125,"cd1","Control","Restaurant",31,"F",2.5,0.43,0,200,8,1,1,"Gain",1,"(0,20]"
"1:18",18,"first_win",94,1,"left",1,"4","first_time",0.2375,"cd1","Control","Restaurant",31,"F",2.5,0.43,0,200,8,1,1,"Gain",0,"(0,20]"
"1:19",19,"first_win",142,0,"right",0.5,"3","first_time",0.25,"cd1","Control","Restaurant",31,"F",2.5,0.43,0,200,8,1,1,"Gain",1,"(0,20]"
"1:20",20,"first_win",135,0,"right",0.5,"3","first_time",0.2625,"cd1","Control","Restaurant",31,"F",2.5,0.43,0,200,8,1,1,"Gain",1,"(0,20]"
"1:21",21,"first_win",136,0,"right",0.5,"3","first_time",0.275,"cd1","Control","Restaurant",31,"F",2.5,0.43,0,200,8,2,1,"Gain",1,"(20,40]"
"1:22",22,"first_win",122,1,"left",1,"4","first_time",0.3,"cd1","Control","Restaurant",31,"F",2.5,0.43,0,200,8,2,1,"Gain",0,"(20,40]"
"1:23",23,"first_win",13,1,"left",0,"4","first_time",0.3,"cd1","Control","Restaurant",31,"F",2.5,0.43,0,200,8,2,1,"Gain",0,"(20,40]"
"1:24",24,"first_win",144,0,"right",0.5,"3","first_time",0.3125,"cd1","Control","Restaurant",31,"F",2.5,0.43,0,200,8,2,0,"Gain",1,"(20,40]"
"1:25",25,"first_win",133,0,"right",0.5,"3","first_time",0.325,"cd1","Control","Restaurant",31,"F",2.5,0.43,0,200,8,2,0,"Gain",1,"(20,40]"
"1:26",26,"first_win",116,1,"left",1,"4","first_time",0.35,"cd1","Control","Restaurant",31,"F",2.5,0.43,0,200,8,2,0,"Gain",0,"(20,40]"
"1:27",27,"first_win",77,0,"right",0.5,"3","first_time",0.3625,"cd1","Control","Restaurant",31,"F",2.5,0.43,0,200,8,2,1,"Gain",1,"(20,40]"
"1:28",28,"first_win",123,0,"right",0.5,"3","first_time",0.375,"cd1","Control","Restaurant",31,"F",2.5,0.43,0,200,8,2,1,"Gain",1,"(20,40]"
"1:29",29,"first_win",124,0,"right",0.5,"3","first_time",0.3875,"cd1","Control","Restaurant",31,"F",2.5,0.43,0,200,8,2,1,"Gain",1,"(20,40]"
"1:30",30,"first_win",75,1,"left",0,"4","first_time",0.3875,"cd1","Control","Restaurant",31,"F",2.5,0.43,0,200,8,2,1,"Gain",0,"(20,40]"
"1:31",31,"first_win",108,1,"left",0,"4","first_time",0.3875,"cd1","Control","Restaurant",31,"F",2.5,0.43,0,200,8,2,0,"Gain",0,"(20,40]"
"1:32",32,"first_win",33,1,"left",1,"4","first_time",0.4125,"cd1","Control","Restaurant",31,"F",2.5,0.43,0,200,8,2,0,"Gain",0,"(20,40]"
"1:33",33,"first_win",126,0,"right",0.5,"3","first_time",0.425,"cd1","Control","Restaurant",31,"F",2.5,0.43,0,200,8,2,1,"Gain",1,"(20,40]"
"1:34",34,"first_win",91,0,"right",0.5,"3","first_time",0.4375,"cd1","Control","Restaurant",31,"F",2.5,0.43,0,200,8,2,1,"Gain",1,"(20,40]"
"1:35",35,"first_win",76,1,"left",0,"4","first_time",0.4375,"cd1","Control","Restaurant",31,"F",2.5,0.43,0,200,8,2,1,"Gain",0,"(20,40]"
"1:36",36,"first_win",47,1,"left",0,"4","first_time",0.4375,"cd1","Control","Restaurant",31,"F",2.5,0.43,0,200,8,2,0,"Gain",0,"(20,40]"
"1:37",37,"first_win",170,1,"left",1,"4","first_time",0.4625,"cd1","Control","Restaurant",31,"F",2.5,0.43,0,200,8,2,0,"Gain",0,"(20,40]"
"1:38",38,"first_win",96,0,"right",0.5,"3","first_time",0.475,"cd1","Control","Restaurant",31,"F",2.5,0.43,0,200,8,2,1,"Gain",1,"(20,40]"
"1:39",39,"first_win",99,0,"right",0.5,"3","first_time",0.4875,"cd1","Control","Restaurant",31,"F",2.5,0.43,0,200,8,2,1,"Gain",1,"(20,40]"
"1:40",40,"first_win",93,1,"left",0,"4","first_time",0.4875,"cd1","Control","Restaurant",31,"F",2.5,0.43,0,200,8,2,1,"Gain",0,"(20,40]"
"1:41",41,"first_win",68,0,"right",0.5,"3","first_time",0.5,"cd1","Control","Restaurant",31,"F",2.5,0.43,0,200,8,3,0,"Gain",1,"(40,60]"
"1:42",42,"first_win",166,0,"right",0.5,"3","first_time",0.5125,"cd1","Control","Restaurant",31,"F",2.5,0.43,0,200,8,3,0,"Gain",1,"(40,60]"
"1:43",43,"first_win",102,1,"left",0,"4","first_time",0.5125,"cd1","Control","Restaurant",31,"F",2.5,0.43,0,200,8,3,0,"Gain",0,"(40,60]"
"1:44",44,"first_win",61,0,"right",0.5,"3","first_time",0.525,"cd1","Control","Restaurant",31,"F",2.5,0.43,0,200,8,3,0,"Gain",1,"(40,60]"
"1:45",45,"first_win",155,0,"right",0.5,"3","first_time",0.5375,"cd1","Control","Restaurant",31,"F",2.5,0.43,0,200,8,3,0,"Gain",1,"(40,60]"
"1:46",46,"first_win",119,1,"left",1,"4","first_time",0.5625,"cd1","Control","Restaurant",31,"F",2.5,0.43,0,200,8,3,0,"Gain",0,"(40,60]"
"1:47",47,"first_win",105,0,"right",0.5,"3","first_time",0.575,"cd1","Control","Restaurant",31,"F",2.5,0.43,0,200,8,3,1,"Gain",1,"(40,60]"
"1:48",48,"first_win",78,0,"right",0.5,"3","first_time",0.5875,"cd1","Control","Restaurant",31,"F",2.5,0.43,0,200,8,3,1,"Gain",1,"(40,60]"
"1:49",49,"first_win",84,0,"right",0.5,"3","first_time",0.6,"cd1","Control","Restaurant",31,"F",2.5,0.43,0,200,8,3,1,"Gain",1,"(40,60]"
"1:50",50,"first_win",58,0,"right",0.5,"3","first_time",0.6125,"cd1","Control","Restaurant",31,"F",2.5,0.43,0,200,8,3,1,"Gain",1,"(40,60]"
"1:51",51,"first_win",89,1,"left",0,"4","first_time",0.6125,"cd1","Control","Restaurant",31,"F",2.5,0.43,0,200,8,3,1,"Gain",0,"(40,60]"
"1:52",52,"first_win",130,1,"left",1,"4","first_time",0.6375,"cd1","Control","Restaurant",31,"F",2.5,0.43,0,200,8,3,0,"Gain",0,"(40,60]"
"1:53",53,"first_win",88,0,"right",0.5,"3","first_time",0.65,"cd1","Control","Restaurant",31,"F",2.5,0.43,0,200,8,3,1,"Gain",1,"(40,60]"
"1:54",54,"first_win",148,1,"left",0,"4","first_time",0.65,"cd1","Control","Restaurant",31,"F",2.5,0.43,0,200,8,3,1,"Gain",0,"(40,60]"
"1:55",55,"first_win",75,1,"left",1,"4","first_time",0.675,"cd1","Control","Restaurant",31,"F",2.5,0.43,0,200,8,3,0,"Gain",0,"(40,60]"
"1:56",56,"first_win",127,0,"right",0.5,"3","first_time",0.6875,"cd1","Control","Restaurant",31,"F",2.5,0.43,0,200,8,3,1,"Gain",1,"(40,60]"
"1:57",57,"first_win",109,0,"right",0.5,"3","first_time",0.7,"cd1","Control","Restaurant",31,"F",2.5,0.43,0,200,8,3,1,"Gain",1,"(40,60]"
"1:58",58,"first_win",154,0,"right",0.5,"3","first_time",0.7125,"cd1","Control","Restaurant",31,"F",2.5,0.43,0,200,8,3,1,"Gain",1,"(40,60]"
"1:59",59,"first_win",43,1,"left",0,"4","first_time",0.7125,"cd1","Control","Restaurant",31,"F",2.5,0.43,0,200,8,3,1,"Gain",0,"(40,60]"
"1:60",60,"first_win",58,1,"left",0,"4","first_time",0.7125,"cd1","Control","Restaurant",31,"F",2.5,0.43,0,200,8,3,0,"Gain",0,"(40,60]"
"1:61",61,"first_win",44,1,"left",1,"4","first_time",0.7375,"cd1","Control","Restaurant",31,"F",2.5,0.43,0,200,8,4,0,"Gain",0,"(60,80]"
"1:62",62,"first_win",132,1,"left",0,"4","first_time",0.7375,"cd1","Control","Restaurant",31,"F",2.5,0.43,0,200,8,4,1,"Gain",0,"(60,80]"
"1:63",63,"first_win",97,0,"right",0.5,"3","first_time",0.75,"cd1","Control","Restaurant",31,"F",2.5,0.43,0,200,8,4,0,"Gain",1,"(60,80]"
"1:64",64,"first_win",160,0,"right",0.5,"3","first_time",0.7625,"cd1","Control","Restaurant",31,"F",2.5,0.43,0,200,8,4,0,"Gain",1,"(60,80]"
"1:65",65,"first_win",63,0,"right",0.5,"3","first_time",0.775,"cd1","Control","Restaurant",31,"F",2.5,0.43,0,200,8,4,0,"Gain",1,"(60,80]"
"1:66",66,"first_win",146,0,"right",0.5,"3","first_time",0.7875,"cd1","Control","Restaurant",31,"F",2.5,0.43,0,200,8,4,0,"Gain",1,"(60,80]"
"1:67",67,"first_win",63,1,"left",1,"4","first_time",0.8125,"cd1","Control","Restaurant",31,"F",2.5,0.43,0,200,8,4,0,"Gain",0,"(60,80]"
"1:68",68,"first_win",110,0,"right",0.5,"3","first_time",0.825,"cd1","Control","Restaurant",31,"F",2.5,0.43,0,200,8,4,1,"Gain",1,"(60,80]"
"1:69",69,"first_win",163,0,"right",0.5,"3","first_time",0.8375,"cd1","Control","Restaurant",31,"F",2.5,0.43,0,200,8,4,1,"Gain",1,"(60,80]"
"1:70",70,"first_win",112,0,"right",0.5,"3","first_time",0.85,"cd1","Control","Restaurant",31,"F",2.5,0.43,0,200,8,4,1,"Gain",1,"(60,80]"
"1:71",71,"first_win",139,1,"left",1,"4","first_time",0.875,"cd1","Control","Restaurant",31,"F",2.5,0.43,0,200,8,4,1,"Gain",0,"(60,80]"
"1:72",72,"first_win",114,0,"right",0.5,"3","first_time",0.8875,"cd1","Control","Restaurant",31,"F",2.5,0.43,0,200,8,4,1,"Gain",1,"(60,80]"
"1:73",73,"first_win",60,0,"right",0.5,"3","first_time",0.9,"cd1","Control","Restaurant",31,"F",2.5,0.43,0,200,8,4,1,"Gain",1,"(60,80]"
"1:74",74,"first_win",69,0,"right",0.5,"3","first_time",0.9125,"cd1","Control","Restaurant",31,"F",2.5,0.43,0,200,8,4,1,"Gain",1,"(60,80]"
"1:75",75,"first_win",103,0,"right",0.5,"3","first_time",0.925,"cd1","Control","Restaurant",31,"F",2.5,0.43,0,200,8,4,1,"Gain",1,"(60,80]"
"1:76",76,"first_win",66,1,"left",1,"4","first_time",0.95,"cd1","Control","Restaurant",31,"F",2.5,0.43,0,200,8,4,1,"Gain",0,"(60,80]"
"1:77",77,"first_win",61,0,"right",0.5,"3","first_time",0.9625,"cd1","Control","Restaurant",31,"F",2.5,0.43,0,200,8,4,1,"Gain",1,"(60,80]"
"1:78",78,"first_win",45,0,"right",0.5,"3","first_time",0.975,"cd1","Control","Restaurant",31,"F",2.5,0.43,0,200,8,4,1,"Gain",1,"(60,80]"
"1:79",79,"first_win",107,0,"right",0.5,"3","first_time",0.9875,"cd1","Control","Restaurant",31,"F",2.5,0.43,0,200,8,4,1,"Gain",1,"(60,80]"
"1:80",80,"first_win",5,1,"left",1,"4","first_time",1.0125,"cd1","Control","Restaurant",31,"F",2.5,0.43,0,200,8,4,1,"Gain",0,"(60,80]"
"1:81",81,"first_win",70,0,"right",0.5,"3","first_time",1.025,"cd1","Control","Restaurant",31,"F",2.5,0.43,0,200,8,5,1,"Gain",1,"(80,100]"
"1:82",82,"first_win",72,0,"right",0.5,"3","first_time",1.0375,"cd1","Control","Restaurant",31,"F",2.5,0.43,0,200,8,5,1,"Gain",1,"(80,100]"
"1:83",83,"first_win",50,0,"right",0.5,"3","first_time",1.05,"cd1","Control","Restaurant",31,"F",2.5,0.43,0,200,8,5,1,"Gain",1,"(80,100]"
"1:84",84,"first_win",42,1,"left",0,"4","first_time",1.05,"cd1","Control","Restaurant",31,"F",2.5,0.43,0,200,8,5,1,"Gain",0,"(80,100]"
"1:85",85,"first_win",59,1,"left",1,"4","first_time",1.075,"cd1","Control","Restaurant",31,"F",2.5,0.43,0,200,8,5,0,"Gain",0,"(80,100]"
"1:86",86,"first_win",64,0,"right",0.5,"3","first_time",1.0875,"cd1","Control","Restaurant",31,"F",2.5,0.43,0,200,8,5,1,"Gain",1,"(80,100]"
"1:87",87,"first_win",104,0,"right",0.5,"3","first_time",1.1,"cd1","Control","Restaurant",31,"F",2.5,0.43,0,200,8,5,1,"Gain",1,"(80,100]"
"1:88",88,"first_win",111,0,"right",0.5,"3","first_time",1.1125,"cd1","Control","Restaurant",31,"F",2.5,0.43,0,200,8,5,1,"Gain",1,"(80,100]"
"1:89",89,"first_win",159,0,"right",0.5,"3","first_time",1.125,"cd1","Control","Restaurant",31,"F",2.5,0.43,0,200,8,5,1,"Gain",1,"(80,100]"
"1:90",90,"first_win",144,1,"left",1,"4","first_time",1.15,"cd1","Control","Restaurant",31,"F",2.5,0.43,0,200,8,5,1,"Gain",0,"(80,100]"
"1:91",91,"first_win",149,0,"right",0.5,"3","first_time",1.1625,"cd1","Control","Restaurant",31,"F",2.5,0.43,0,200,8,5,1,"Gain",1,"(80,100]"
"1:92",92,"first_win",92,0,"right",0.5,"3","first_time",1.175,"cd1","Control","Restaurant",31,"F",2.5,0.43,0,200,8,5,1,"Gain",1,"(80,100]"
"1:93",93,"first_win",79,0,"right",0.5,"3","first_time",1.1875,"cd1","Control","Restaurant",31,"F",2.5,0.43,0,200,8,5,1,"Gain",1,"(80,100]"
"1:94",94,"first_win",25,0,"right",0.5,"3","first_time",1.2,"cd1","Control","Restaurant",31,"F",2.5,0.43,0,200,8,5,1,"Gain",1,"(80,100]"
"1:95",95,"first_win",71,1,"left",0,"4","first_time",1.2,"cd1","Control","Restaurant",31,"F",2.5,0.43,0,200,8,5,1,"Gain",0,"(80,100]"
"1:96",96,"first_win",16,1,"left",0,"4","first_time",1.2,"cd1","Control","Restaurant",31,"F",2.5,0.43,0,200,8,5,0,"Gain",0,"(80,100]"
"1:97",97,"first_win",61,1,"left",0,"4","first_time",1.2,"cd1","Control","Restaurant",31,"F",2.5,0.43,0,200,8,5,0,"Gain",0,"(80,100]"
"1:98",98,"first_win",118,1,"left",0,"4","first_time",1.2,"cd1","Control","Restaurant",31,"F",2.5,0.43,0,200,8,5,0,"Gain",0,"(80,100]"
"1:99",99,"first_win",137,1,"left",0,"4","first_time",1.2,"cd1","Control","Restaurant",31,"F",2.5,0.43,0,200,8,5,0,"Gain",0,"(80,100]"
"1:100",100,"first_win",162,0,"right",0.5,"3","first_time",1.2125,"cd1","Control","Restaurant",31,"F",2.5,0.43,0,200,8,5,0,"Gain",1,"(80,100]"
"1:101",1,"second_win",2,NA,NA,-1,NA,"first_time",0,"cd2","Control","Restaurant",34,"F",0,0.303030303030303,0,200,8,1,NA,"Gain",NA,"(0,20]"
"1:102",2,"second_win",178,1,"right",0,"4","first_time",0,"cd2","Control","Restaurant",34,"F",0,0.303030303030303,0,200,8,1,NA,"Gain",1,"(0,20]"
"1:103",3,"second_win",194,0,"left",0.5,"2","first_time",0.0125,"cd2","Control","Restaurant",34,"F",0,0.303030303030303,0,200,8,1,0,"Gain",0,"(0,20]"
"1:104",4,"second_win",189,0,"left",0.5,"2","first_time",0.025,"cd2","Control","Restaurant",34,"F",0,0.303030303030303,0,200,8,1,0,"Gain",0,"(0,20]"
"1:105",5,"second_win",182,1,"right",1,"4","first_time",0.05,"cd2","Control","Restaurant",34,"F",0,0.303030303030303,0,200,8,1,0,"Gain",1,"(0,20]"
"1:106",6,"second_win",183,0,"left",0.5,"2","first_time",0.0625,"cd2","Control","Restaurant",34,"F",0,0.303030303030303,0,200,8,1,1,"Gain",0,"(0,20]"
"1:107",7,"second_win",184,1,"right",0,"4","first_time",0.0625,"cd2","Control","Restaurant",34,"F",0,0.303030303030303,0,200,8,1,1,"Gain",1,"(0,20]"
"1:108",8,"second_win",308,0,"left",0.5,"2","first_time",0.075,"cd2","Control","Restaurant",34,"F",0,0.303030303030303,0,200,8,1,0,"Gain",0,"(0,20]"
"1:109",9,"second_win",187,1,"right",1,"4","first_time",0.1,"cd2","Control","Restaurant",34,"F",0,0.303030303030303,0,200,8,1,0,"Gain",1,"(0,20]"
"1:110",10,"second_win",301,1,"right",0,"4","first_time",0.1,"cd2","Control","Restaurant",34,"F",0,0.303030303030303,0,200,8,1,1,"Gain",1,"(0,20]"
"1:111",11,"second_win",260,0,"left",0.5,"2","first_time",0.1125,"cd2","Control","Restaurant",34,"F",0,0.303030303030303,0,200,8,1,0,"Gain",0,"(0,20]"
"1:112",12,"second_win",132,0,"left",0.5,"2","first_time",0.125,"cd2","Control","Restaurant",34,"F",0,0.303030303030303,0,200,8,1,0,"Gain",0,"(0,20]"
"1:113",13,"second_win",177,0,"left",0.5,"2","first_time",0.1375,"cd2","Control","Restaurant",34,"F",0,0.303030303030303,0,200,8,1,0,"Gain",0,"(0,20]"
"1:114",14,"second_win",128,1,"right",1,"4","first_time",0.1625,"cd2","Control","Restaurant",34,"F",0,0.303030303030303,0,200,8,1,0,"Gain",1,"(0,20]"
"1:115",15,"second_win",252,0,"left",0.5,"2","first_time",0.175,"cd2","Control","Restaurant",34,"F",0,0.303030303030303,0,200,8,1,1,"Gain",0,"(0,20]"
"1:116",16,"second_win",155,1,"right",0,"4","first_time",0.175,"cd2","Control","Restaurant",34,"F",0,0.303030303030303,0,200,8,1,1,"Gain",1,"(0,20]"
"1:117",17,"second_win",293,1,"right",0,"4","first_time",0.175,"cd2","Control","Restaurant",34,"F",0,0.303030303030303,0,200,8,1,0,"Gain",1,"(0,20]"
"1:118",18,"second_win",111,1,"right",0,"4","first_time",0.175,"cd2","Control","Restaurant",34,"F",0,0.303030303030303,0,200,8,1,0,"Gain",1,"(0,20]"
"1:119",19,"second_win",74,0,"left",0.5,"2","first_time",0.1875,"cd2","Control","Restaurant",34,"F",0,0.303030303030303,0,200,8,1,0,"Gain",0,"(0,20]"
"1:120",20,"second_win",261,0,"left",0.5,"2","first_time",0.2,"cd2","Control","Restaurant",34,"F",0,0.303030303030303,0,200,8,1,0,"Gain",0,"(0,20]"
"1:121",21,"second_win",281,0,"left",0.5,"2","first_time",0.2125,"cd2","Control","Restaurant",34,"F",0,0.303030303030303,0,200,8,2,0,"Gain",0,"(20,40]"
"1:122",22,"second_win",267,1,"right",1,"4","first_time",0.2375,"cd2","Control","Restaurant",34,"F",0,0.303030303030303,0,200,8,2,0,"Gain",1,"(20,40]"
"1:123",23,"second_win",274,0,"left",0.5,"2","first_time",0.25,"cd2","Control","Restaurant",34,"F",0,0.303030303030303,0,200,8,2,1,"Gain",0,"(20,40]"
"1:124",24,"second_win",309,0,"left",0.5,"2","first_time",0.2625,"cd2","Control","Restaurant",34,"F",0,0.303030303030303,0,200,8,2,1,"Gain",0,"(20,40]"
"1:125",25,"second_win",306,0,"left",0.5,"2","first_time",0.275,"cd2","Control","Restaurant",34,"F",0,0.303030303030303,0,200,8,2,1,"Gain",0,"(20,40]"
"1:126",26,"second_win",181,1,"right",1,"4","first_time",0.3,"cd2","Control","Restaurant",34,"F",0,0.303030303030303,0,200,8,2,1,"Gain",1,"(20,40]"
"1:127",27,"second_win",97,0,"left",0.5,"2","first_time",0.3125,"cd2","Control","Restaurant",34,"F",0,0.303030303030303,0,200,8,2,1,"Gain",0,"(20,40]"
"1:128",28,"second_win",212,0,"left",0.5,"2","first_time",0.325,"cd2","Control","Restaurant",34,"F",0,0.303030303030303,0,200,8,2,1,"Gain",0,"(20,40]"
"1:129",29,"second_win",175,0,"left",0.5,"2","first_time",0.3375,"cd2","Control","Restaurant",34,"F",0,0.303030303030303,0,200,8,2,1,"Gain",0,"(20,40]"
"1:130",30,"second_win",42,1,"right",0,"4","first_time",0.3375,"cd2","Control","Restaurant",34,"F",0,0.303030303030303,0,200,8,2,1,"Gain",1,"(20,40]"
"1:131",31,"second_win",265,0,"left",0.5,"2","first_time",0.35,"cd2","Control","Restaurant",34,"F",0,0.303030303030303,0,200,8,2,0,"Gain",0,"(20,40]"
"1:132",32,"second_win",292,1,"right",1,"4","first_time",0.375,"cd2","Control","Restaurant",34,"F",0,0.303030303030303,0,200,8,2,0,"Gain",1,"(20,40]"
"1:133",33,"second_win",244,0,"left",0.5,"2","first_time",0.3875,"cd2","Control","Restaurant",34,"F",0,0.303030303030303,0,200,8,2,1,"Gain",0,"(20,40]"
"1:134",34,"second_win",312,0,"left",0.5,"2","first_time",0.4,"cd2","Control","Restaurant",34,"F",0,0.303030303030303,0,200,8,2,1,"Gain",0,"(20,40]"
"1:135",35,"second_win",303,1,"right",0,"4","first_time",0.4,"cd2","Control","Restaurant",34,"F",0,0.303030303030303,0,200,8,2,1,"Gain",1,"(20,40]"
"1:136",36,"second_win",94,0,"left",0.5,"2","first_time",0.4125,"cd2","Control","Restaurant",34,"F",0,0.303030303030303,0,200,8,2,0,"Gain",0,"(20,40]"
"1:137",37,"second_win",258,0,"left",0.5,"2","first_time",0.425,"cd2","Control","Restaurant",34,"F",0,0.303030303030303,0,200,8,2,0,"Gain",0,"(20,40]"
"1:138",38,"second_win",280,0,"left",0.5,"2","first_time",0.4375,"cd2","Control","Restaurant",34,"F",0,0.303030303030303,0,200,8,2,0,"Gain",0,"(20,40]"
"1:139",39,"second_win",271,0,"left",0.5,"2","first_time",0.45,"cd2","Control","Restaurant",34,"F",0,0.303030303030303,0,200,8,2,0,"Gain",0,"(20,40]"
"1:140",40,"second_win",215,1,"right",0,"4","first_time",0.45,"cd2","Control","Restaurant",34,"F",0,0.303030303030303,0,200,8,2,0,"Gain",1,"(20,40]"
"1:141",41,"second_win",220,0,"left",0.5,"2","first_time",0.4625,"cd2","Control","Restaurant",34,"F",0,0.303030303030303,0,200,8,3,0,"Gain",0,"(40,60]"
"1:142",42,"second_win",231,1,"right",1,"4","first_time",0.4875,"cd2","Control","Restaurant",34,"F",0,0.303030303030303,0,200,8,3,0,"Gain",1,"(40,60]"
"1:143",43,"second_win",284,0,"left",0.5,"2","first_time",0.5,"cd2","Control","Restaurant",34,"F",0,0.303030303030303,0,200,8,3,1,"Gain",0,"(40,60]"
"1:144",44,"second_win",146,0,"left",0.5,"2","first_time",0.5125,"cd2","Control","Restaurant",34,"F",0,0.303030303030303,0,200,8,3,1,"Gain",0,"(40,60]"
"1:145",45,"second_win",300,1,"right",0,"4","first_time",0.5125,"cd2","Control","Restaurant",34,"F",0,0.303030303030303,0,200,8,3,1,"Gain",1,"(40,60]"
"1:146",46,"second_win",211,0,"left",0.5,"2","first_time",0.525,"cd2","Control","Restaurant",34,"F",0,0.303030303030303,0,200,8,3,0,"Gain",0,"(40,60]"
"1:147",47,"second_win",146,0,"left",0.5,"2","first_time",0.5375,"cd2","Control","Restaurant",34,"F",0,0.303030303030303,0,200,8,3,0,"Gain",0,"(40,60]"
"1:148",48,"second_win",213,0,"left",0.5,"2","first_time",0.55,"cd2","Control","Restaurant",34,"F",0,0.303030303030303,0,200,8,3,0,"Gain",0,"(40,60]"
"1:149",49,"second_win",240,0,"left",0.5,"2","first_time",0.5625,"cd2","Control","Restaurant",34,"F",0,0.303030303030303,0,200,8,3,0,"Gain",0,"(40,60]"
"1:150",50,"second_win",285,1,"right",1,"4","first_time",0.5875,"cd2","Control","Restaurant",34,"F",0,0.303030303030303,0,200,8,3,0,"Gain",1,"(40,60]"
"1:151",51,"second_win",251,0,"left",0.5,"2","first_time",0.6,"cd2","Control","Restaurant",34,"F",0,0.303030303030303,0,200,8,3,1,"Gain",0,"(40,60]"
"1:152",52,"second_win",176,0,"left",0.5,"2","first_time",0.6125,"cd2","Control","Restaurant",34,"F",0,0.303030303030303,0,200,8,3,1,"Gain",0,"(40,60]"
"1:153",53,"second_win",305,1,"right",0,"4","first_time",0.6125,"cd2","Control","Restaurant",34,"F",0,0.303030303030303,0,200,8,3,1,"Gain",1,"(40,60]"
"1:154",54,"second_win",225,0,"left",0.5,"2","first_time",0.625,"cd2","Control","Restaurant",34,"F",0,0.303030303030303,0,200,8,3,0,"Gain",0,"(40,60]"
"1:155",55,"second_win",290,0,"left",0.5,"2","first_time",0.6375,"cd2","Control","Restaurant",34,"F",0,0.303030303030303,0,200,8,3,0,"Gain",0,"(40,60]"
"1:156",56,"second_win",273,0,"left",0.5,"2","first_time",0.65,"cd2","Control","Restaurant",34,"F",0,0.303030303030303,0,200,8,3,0,"Gain",0,"(40,60]"
"1:157",57,"second_win",296,1,"right",1,"4","first_time",0.675,"cd2","Control","Restaurant",34,"F",0,0.303030303030303,0,200,8,3,0,"Gain",1,"(40,60]"
"1:158",58,"second_win",105,0,"left",0.5,"2","first_time",0.6875,"cd2","Control","Restaurant",34,"F",0,0.303030303030303,0,200,8,3,1,"Gain",0,"(40,60]"
"1:159",59,"second_win",249,0,"left",0.5,"2","first_time",0.7,"cd2","Control","Restaurant",34,"F",0,0.303030303030303,0,200,8,3,1,"Gain",0,"(40,60]"
"1:160",60,"second_win",76,0,"left",0.5,"2","first_time",0.7125,"cd2","Control","Restaurant",34,"F",0,0.303030303030303,0,200,8,3,1,"Gain",0,"(40,60]"
"1:161",61,"second_win",213,0,"left",0.5,"2","first_time",0.725,"cd2","Control","Restaurant",34,"F",0,0.303030303030303,0,200,8,4,1,"Gain",0,"(60,80]"
"1:162",62,"second_win",248,0,"left",0.5,"2","first_time",0.7375,"cd2","Control","Restaurant",34,"F",0,0.303030303030303,0,200,8,4,1,"Gain",0,"(60,80]"
"1:163",63,"second_win",304,0,"left",0.5,"2","first_time",0.75,"cd2","Control","Restaurant",34,"F",0,0.303030303030303,0,200,8,4,1,"Gain",0,"(60,80]"
"1:164",64,"second_win",311,1,"right",0,"4","first_time",0.75,"cd2","Control","Restaurant",34,"F",0,0.303030303030303,0,200,8,4,1,"Gain",1,"(60,80]"
"1:165",65,"second_win",263,0,"left",0.5,"2","first_time",0.7625,"cd2","Control","Restaurant",34,"F",0,0.303030303030303,0,200,8,4,0,"Gain",0,"(60,80]"
"1:166",66,"second_win",109,0,"left",0.5,"2","first_time",0.775,"cd2","Control","Restaurant",34,"F",0,0.303030303030303,0,200,8,4,0,"Gain",0,"(60,80]"
"1:167",67,"second_win",217,1,"right",0,"4","first_time",0.775,"cd2","Control","Restaurant",34,"F",0,0.303030303030303,0,200,8,4,0,"Gain",1,"(60,80]"
"1:168",68,"second_win",246,0,"left",0.5,"2","first_time",0.7875,"cd2","Control","Restaurant",34,"F",0,0.303030303030303,0,200,8,4,0,"Gain",0,"(60,80]"
"1:169",69,"second_win",286,1,"right",0,"4","first_time",0.7875,"cd2","Control","Restaurant",34,"F",0,0.303030303030303,0,200,8,4,0,"Gain",1,"(60,80]"
"1:170",70,"second_win",230,0,"left",0.5,"2","first_time",0.8,"cd2","Control","Restaurant",34,"F",0,0.303030303030303,0,200,8,4,0,"Gain",0,"(60,80]"
"1:171",71,"second_win",196,0,"left",0.5,"2","first_time",0.8125,"cd2","Control","Restaurant",34,"F",0,0.303030303030303,0,200,8,4,0,"Gain",0,"(60,80]"
"1:172",72,"second_win",96,0,"left",0.5,"2","first_time",0.825,"cd2","Control","Restaurant",34,"F",0,0.303030303030303,0,200,8,4,0,"Gain",0,"(60,80]"
"1:173",73,"second_win",208,0,"left",0.5,"2","first_time",0.8375,"cd2","Control","Restaurant",34,"F",0,0.303030303030303,0,200,8,4,0,"Gain",0,"(60,80]"
"1:174",74,"second_win",199,0,"left",0.5,"2","first_time",0.85,"cd2","Control","Restaurant",34,"F",0,0.303030303030303,0,200,8,4,0,"Gain",0,"(60,80]"
"1:175",75,"second_win",253,0,"left",0.5,"2","first_time",0.8625,"cd2","Control","Restaurant",34,"F",0,0.303030303030303,0,200,8,4,0,"Gain",0,"(60,80]"
"1:176",76,"second_win",236,0,"left",0.5,"2","first_time",0.875,"cd2","Control","Restaurant",34,"F",0,0.303030303030303,0,200,8,4,0,"Gain",0,"(60,80]"
"1:177",77,"second_win",256,0,"left",0.5,"2","first_time",0.8875,"cd2","Control","Restaurant",34,"F",0,0.303030303030303,0,200,8,4,0,"Gain",0,"(60,80]"
"1:178",78,"second_win",272,0,"left",0.5,"2","first_time",0.9,"cd2","Control","Restaurant",34,"F",0,0.303030303030303,0,200,8,4,0,"Gain",0,"(60,80]"
"1:179",79,"second_win",310,0,"left",0.5,"2","first_time",0.9125,"cd2","Control","Restaurant",34,"F",0,0.303030303030303,0,200,8,4,0,"Gain",0,"(60,80]"
"1:180",80,"second_win",266,1,"right",0,"4","first_time",0.9125,"cd2","Control","Restaurant",34,"F",0,0.303030303030303,0,200,8,4,0,"Gain",1,"(60,80]"
"1:181",81,"second_win",249,0,"left",0.5,"2","first_time",0.925,"cd2","Control","Restaurant",34,"F",0,0.303030303030303,0,200,8,5,0,"Gain",0,"(80,100]"
"1:182",82,"second_win",90,1,"right",1,"4","first_time",0.95,"cd2","Control","Restaurant",34,"F",0,0.303030303030303,0,200,8,5,0,"Gain",1,"(80,100]"
"1:183",83,"second_win",313,1,"right",0,"4","first_time",0.95,"cd2","Control","Restaurant",34,"F",0,0.303030303030303,0,200,8,5,1,"Gain",1,"(80,100]"
"1:184",84,"second_win",120,0,"left",0.5,"2","first_time",0.9625,"cd2","Control","Restaurant",34,"F",0,0.303030303030303,0,200,8,5,0,"Gain",0,"(80,100]"
"1:185",85,"second_win",276,0,"left",0.5,"2","first_time",0.975,"cd2","Control","Restaurant",34,"F",0,0.303030303030303,0,200,8,5,0,"Gain",0,"(80,100]"
"1:186",86,"second_win",232,1,"right",1,"4","first_time",1,"cd2","Control","Restaurant",34,"F",0,0.303030303030303,0,200,8,5,0,"Gain",1,"(80,100]"
"1:187",87,"second_win",275,0,"left",0.5,"2","first_time",1.0125,"cd2","Control","Restaurant",34,"F",0,0.303030303030303,0,200,8,5,1,"Gain",0,"(80,100]"
"1:188",88,"second_win",126,0,"left",0.5,"2","first_time",1.025,"cd2","Control","Restaurant",34,"F",0,0.303030303030303,0,200,8,5,1,"Gain",0,"(80,100]"
"1:189",89,"second_win",267,1,"right",1,"4","first_time",1.05,"cd2","Control","Restaurant",34,"F",0,0.303030303030303,0,200,8,5,1,"Gain",1,"(80,100]"
"1:190",90,"second_win",227,0,"left",0.5,"2","first_time",1.0625,"cd2","Control","Restaurant",34,"F",0,0.303030303030303,0,200,8,5,1,"Gain",0,"(80,100]"
"1:191",91,"second_win",228,0,"left",0.5,"2","first_time",1.075,"cd2","Control","Restaurant",34,"F",0,0.303030303030303,0,200,8,5,1,"Gain",0,"(80,100]"
"1:192",92,"second_win",269,0,"left",0.5,"2","first_time",1.0875,"cd2","Control","Restaurant",34,"F",0,0.303030303030303,0,200,8,5,1,"Gain",0,"(80,100]"
"1:193",93,"second_win",255,0,"left",0.5,"2","first_time",1.1,"cd2","Control","Restaurant",34,"F",0,0.303030303030303,0,200,8,5,1,"Gain",0,"(80,100]"
"1:194",94,"second_win",232,1,"right",0,"4","first_time",1.1,"cd2","Control","Restaurant",34,"F",0,0.303030303030303,0,200,8,5,1,"Gain",1,"(80,100]"
"1:195",95,"second_win",204,0,"left",0.5,"2","first_time",1.1125,"cd2","Control","Restaurant",34,"F",0,0.303030303030303,0,200,8,5,0,"Gain",0,"(80,100]"
"1:196",96,"second_win",279,1,"right",1,"4","first_time",1.1375,"cd2","Control","Restaurant",34,"F",0,0.303030303030303,0,200,8,5,0,"Gain",1,"(80,100]"
"1:197",97,"second_win",298,0,"left",0.5,"2","first_time",1.15,"cd2","Control","Restaurant",34,"F",0,0.303030303030303,0,200,8,5,1,"Gain",0,"(80,100]"
"1:198",98,"second_win",295,0,"left",0.5,"2","first_time",1.1625,"cd2","Control","Restaurant",34,"F",0,0.303030303030303,0,200,8,5,1,"Gain",0,"(80,100]"
"1:199",99,"second_win",235,0,"left",0.5,"2","first_time",1.175,"cd2","Control","Restaurant",34,"F",0,0.303030303030303,0,200,8,5,1,"Gain",0,"(80,100]"
"1:200",100,"second_win",56,0,"left",0.5,"2","first_time",1.1875,"cd2","Control","Restaurant",34,"F",0,0.303030303030303,0,200,8,5,1,"Gain",0,"(80,100]"
"1:201",1,"first_win",356,1,"right",1,"3","first_time",0.025,"cd3","Episodic","Hospital",21,"F",2.5,0.43,0,200,7,1,NA,"Gain",1,"(0,20]"
"1:202",2,"first_win",322,0,"left",0.5,"1","first_time",0.0375,"cd3","Episodic","Hospital",21,"F",2.5,0.43,0,200,7,1,1,"Gain",0,"(0,20]"
"1:203",3,"first_win",331,0,"left",0.5,"1","first_time",0.05,"cd3","Episodic","Hospital",21,"F",2.5,0.43,0,200,7,1,1,"Gain",0,"(0,20]"
"1:204",4,"first_win",329,1,"right",0,"3","first_time",0.05,"cd3","Episodic","Hospital",21,"F",2.5,0.43,0,200,7,1,1,"Gain",1,"(0,20]"
"1:205",5,"first_win",332,1,"right",1,"3","first_time",0.075,"cd3","Episodic","Hospital",21,"F",2.5,0.43,0,200,7,1,0,"Gain",1,"(0,20]"
"1:206",6,"first_win",415,0,"left",0.5,"1","first_time",0.0875,"cd3","Episodic","Hospital",21,"F",2.5,0.43,0,200,7,1,1,"Gain",0,"(0,20]"
"1:207",7,"first_win",351,0,"left",0.5,"1","first_time",0.1,"cd3","Episodic","Hospital",21,"F",2.5,0.43,0,200,7,1,1,"Gain",0,"(0,20]"
"1:208",8,"first_win",430,1,"right",0,"3","first_time",0.1,"cd3","Episodic","Hospital",21,"F",2.5,0.43,0,200,7,1,1,"Gain",1,"(0,20]"
"1:209",9,"first_win",326,1,"right",0,"3","first_time",0.1,"cd3","Episodic","Hospital",21,"F",2.5,0.43,0,200,7,1,0,"Gain",1,"(0,20]"
"1:210",10,"first_win",310,1,"right",0,"3","first_time",0.1,"cd3","Episodic","Hospital",21,"F",2.5,0.43,0,200,7,1,0,"Gain",1,"(0,20]"
"1:211",11,"first_win",353,0,"left",0.5,"1","first_time",0.1125,"cd3","Episodic","Hospital",21,"F",2.5,0.43,0,200,7,1,0,"Gain",0,"(0,20]"
"1:212",12,"first_win",334,0,"left",0.5,"1","first_time",0.125,"cd3","Episodic","Hospital",21,"F",2.5,0.43,0,200,7,1,0,"Gain",0,"(0,20]"
"1:213",13,"first_win",427,0,"left",0.5,"1","first_time",0.1375,"cd3","Episodic","Hospital",21,"F",2.5,0.43,0,200,7,1,0,"Gain",0,"(0,20]"
"1:214",14,"first_win",314,0,"left",0.5,"1","first_time",0.15,"cd3","Episodic","Hospital",21,"F",2.5,0.43,0,200,7,1,0,"Gain",0,"(0,20]"
"1:215",15,"first_win",345,0,"left",0.5,"1","first_time",0.1625,"cd3","Episodic","Hospital",21,"F",2.5,0.43,0,200,7,1,0,"Gain",0,"(0,20]"
"1:216",16,"first_win",328,0,"left",0.5,"1","first_time",0.175,"cd3","Episodic","Hospital",21,"F",2.5,0.43,0,200,7,1,0,"Gain",0,"(0,20]"
"1:217",17,"first_win",165,0,"left",0.5,"1","first_time",0.1875,"cd3","Episodic","Hospital",21,"F",2.5,0.43,0,200,7,1,0,"Gain",0,"(0,20]"
"1:218",18,"first_win",396,0,"left",0.5,"1","first_time",0.2,"cd3","Episodic","Hospital",21,"F",2.5,0.43,0,200,7,1,0,"Gain",0,"(0,20]"
"1:219",19,"first_win",417,0,"left",0.5,"1","first_time",0.2125,"cd3","Episodic","Hospital",21,"F",2.5,0.43,0,200,7,1,0,"Gain",0,"(0,20]"
"1:220",20,"first_win",410,0,"left",0.5,"1","first_time",0.225,"cd3","Episodic","Hospital",21,"F",2.5,0.43,0,200,7,1,0,"Gain",0,"(0,20]"
"1:221",21,"first_win",325,0,"left",0.5,"1","first_time",0.2375,"cd3","Episodic","Hospital",21,"F",2.5,0.43,0,200,7,2,0,"Gain",0,"(20,40]"
"1:222",22,"first_win",414,0,"left",0.5,"1","first_time",0.25,"cd3","Episodic","Hospital",21,"F",2.5,0.43,0,200,7,2,0,"Gain",0,"(20,40]"
"1:223",23,"first_win",390,0,"left",0.5,"1","first_time",0.2625,"cd3","Episodic","Hospital",21,"F",2.5,0.43,0,200,7,2,0,"Gain",0,"(20,40]"
"1:224",24,"first_win",387,0,"left",0.5,"1","first_time",0.275,"cd3","Episodic","Hospital",21,"F",2.5,0.43,0,200,7,2,0,"Gain",0,"(20,40]"
"1:225",25,"first_win",421,1,"right",1,"3","first_time",0.3,"cd3","Episodic","Hospital",21,"F",2.5,0.43,0,200,7,2,0,"Gain",1,"(20,40]"
"1:226",26,"first_win",151,1,"right",1,"3","first_time",0.325,"cd3","Episodic","Hospital",21,"F",2.5,0.43,0,200,7,2,1,"Gain",1,"(20,40]"
"1:227",27,"first_win",428,1,"right",1,"3","first_time",0.35,"cd3","Episodic","Hospital",21,"F",2.5,0.43,0,200,7,2,1,"Gain",1,"(20,40]"
"1:228",28,"first_win",432,1,"right",1,"3","first_time",0.375,"cd3","Episodic","Hospital",21,"F",2.5,0.43,0,200,7,2,1,"Gain",1,"(20,40]"
"1:229",29,"first_win",399,1,"right",1,"3","first_time",0.4,"cd3","Episodic","Hospital",21,"F",2.5,0.43,0,200,7,2,1,"Gain",1,"(20,40]"
"1:230",30,"first_win",389,1,"right",1,"3","first_time",0.425,"cd3","Episodic","Hospital",21,"F",2.5,0.43,0,200,7,2,1,"Gain",1,"(20,40]"
"1:231",31,"first_win",404,1,"right",0,"3","first_time",0.425,"cd3","Episodic","Hospital",21,"F",2.5,0.43,0,200,7,2,1,"Gain",1,"(20,40]"
"1:232",32,"first_win",330,0,"left",0.5,"1","first_time",0.4375,"cd3","Episodic","Hospital",21,"F",2.5,0.43,0,200,7,2,0,"Gain",0,"(20,40]"
"1:233",33,"first_win",413,0,"left",0.5,"1","first_time",0.45,"cd3","Episodic","Hospital",21,"F",2.5,0.43,0,200,7,2,0,"Gain",0,"(20,40]"
"1:234",34,"first_win",424,0,"left",0.5,"1","first_time",0.4625,"cd3","Episodic","Hospital",21,"F",2.5,0.43,0,200,7,2,0,"Gain",0,"(20,40]"
"1:235",35,"first_win",369,1,"right",1,"3","first_time",0.4875,"cd3","Episodic","Hospital",21,"F",2.5,0.43,0,200,7,2,0,"Gain",1,"(20,40]"
"1:236",36,"first_win",372,1,"right",1,"3","first_time",0.5125,"cd3","Episodic","Hospital",21,"F",2.5,0.43,0,200,7,2,1,"Gain",1,"(20,40]"
"1:237",37,"first_win",367,1,"right",0,"3","first_time",0.5125,"cd3","Episodic","Hospital",21,"F",2.5,0.43,0,200,7,2,1,"Gain",1,"(20,40]"
"1:238",38,"first_win",262,0,"left",0.5,"1","first_time",0.525,"cd3","Episodic","Hospital",21,"F",2.5,0.43,0,200,7,2,0,"Gain",0,"(20,40]"
"1:239",39,"first_win",110,1,"right",1,"3","first_time",0.55,"cd3","Episodic","Hospital",21,"F",2.5,0.43,0,200,7,2,0,"Gain",1,"(20,40]"
"1:240",40,"first_win",142,1,"right",0,"3","first_time",0.55,"cd3","Episodic","Hospital",21,"F",2.5,0.43,0,200,7,2,1,"Gain",1,"(20,40]"
"1:241",41,"first_win",378,0,"left",0.5,"1","first_time",0.5625,"cd3","Episodic","Hospital",21,"F",2.5,0.43,0,200,7,3,0,"Gain",0,"(40,60]"
"1:242",42,"first_win",128,0,"left",0.5,"1","first_time",0.575,"cd3","Episodic","Hospital",21,"F",2.5,0.43,0,200,7,3,0,"Gain",0,"(40,60]"
"1:243",43,"first_win",124,1,"right",0,"3","first_time",0.575,"cd3","Episodic","Hospital",21,"F",2.5,0.43,0,200,7,3,0,"Gain",1,"(40,60]"
"1:244",44,"first_win",406,0,"left",0.5,"1","first_time",0.5875,"cd3","Episodic","Hospital",21,"F",2.5,0.43,0,200,7,3,0,"Gain",0,"(40,60]"
"1:245",45,"first_win",405,0,"left",0.5,"1","first_time",0.6,"cd3","Episodic","Hospital",21,"F",2.5,0.43,0,200,7,3,0,"Gain",0,"(40,60]"
"1:246",46,"first_win",381,1,"right",0,"3","first_time",0.6,"cd3","Episodic","Hospital",21,"F",2.5,0.43,0,200,7,3,0,"Gain",1,"(40,60]"
"1:247",47,"first_win",366,0,"left",0.5,"1","first_time",0.6125,"cd3","Episodic","Hospital",21,"F",2.5,0.43,0,200,7,3,0,"Gain",0,"(40,60]"
"1:248",48,"first_win",317,0,"left",0.5,"1","first_time",0.625,"cd3","Episodic","Hospital",21,"F",2.5,0.43,0,200,7,3,0,"Gain",0,"(40,60]"
"1:249",49,"first_win",102,1,"right",1,"3","first_time",0.65,"cd3","Episodic","Hospital",21,"F",2.5,0.43,0,200,7,3,0,"Gain",1,"(40,60]"
"1:250",50,"first_win",389,1,"right",1,"3","first_time",0.675,"cd3","Episodic","Hospital",21,"F",2.5,0.43,0,200,7,3,1,"Gain",1,"(40,60]"
"1:251",51,"first_win",396,1,"right",0,"3","first_time",0.675,"cd3","Episodic","Hospital",21,"F",2.5,0.43,0,200,7,3,1,"Gain",1,"(40,60]"
"1:252",52,"first_win",370,1,"right",1,"3","first_time",0.7,"cd3","Episodic","Hospital",21,"F",2.5,0.43,0,200,7,3,0,"Gain",1,"(40,60]"
"1:253",53,"first_win",357,1,"right",0,"3","first_time",0.7,"cd3","Episodic","Hospital",21,"F",2.5,0.43,0,200,7,3,1,"Gain",1,"(40,60]"
"1:254",54,"first_win",109,0,"left",0.5,"1","first_time",0.7125,"cd3","Episodic","Hospital",21,"F",2.5,0.43,0,200,7,3,0,"Gain",0,"(40,60]"
"1:255",55,"first_win",376,0,"left",0.5,"1","first_time",0.725,"cd3","Episodic","Hospital",21,"F",2.5,0.43,0,200,7,3,0,"Gain",0,"(40,60]"
"1:256",56,"first_win",349,1,"right",0,"3","first_time",0.725,"cd3","Episodic","Hospital",21,"F",2.5,0.43,0,200,7,3,0,"Gain",1,"(40,60]"
"1:257",57,"first_win",104,0,"left",0.5,"1","first_time",0.7375,"cd3","Episodic","Hospital",21,"F",2.5,0.43,0,200,7,3,0,"Gain",0,"(40,60]"
"1:258",58,"first_win",379,1,"right",1,"3","first_time",0.7625,"cd3","Episodic","Hospital",21,"F",2.5,0.43,0,200,7,3,0,"Gain",1,"(40,60]"
"1:259",59,"first_win",124,1,"right",0,"3","first_time",0.7625,"cd3","Episodic","Hospital",21,"F",2.5,0.43,0,200,7,3,1,"Gain",1,"(40,60]"
"1:260",60,"first_win",424,1,"right",0,"3","first_time",0.7625,"cd3","Episodic","Hospital",21,"F",2.5,0.43,0,200,7,3,0,"Gain",1,"(40,60]"
"1:261",61,"first_win",204,0,"left",0.5,"1","first_time",0.775,"cd3","Episodic","Hospital",21,"F",2.5,0.43,0,200,7,4,0,"Gain",0,"(60,80]"
"1:262",62,"first_win",415,0,"left",0.5,"1","first_time",0.7875,"cd3","Episodic","Hospital",21,"F",2.5,0.43,0,200,7,4,0,"Gain",0,"(60,80]"
"1:263",63,"first_win",380,0,"left",0.5,"1","first_time",0.8,"cd3","Episodic","Hospital",21,"F",2.5,0.43,0,200,7,4,0,"Gain",0,"(60,80]"
"1:264",64,"first_win",388,0,"left",0.5,"1","first_time",0.8125,"cd3","Episodic","Hospital",21,"F",2.5,0.43,0,200,7,4,0,"Gain",0,"(60,80]"
"1:265",65,"first_win",138,1,"right",1,"3","first_time",0.8375,"cd3","Episodic","Hospital",21,"F",2.5,0.43,0,200,7,4,0,"Gain",1,"(60,80]"
"1:266",66,"first_win",376,0,"left",0.5,"1","first_time",0.85,"cd3","Episodic","Hospital",21,"F",2.5,0.43,0,200,7,4,1,"Gain",0,"(60,80]"
"1:267",67,"first_win",363,1,"right",1,"3","first_time",0.875,"cd3","Episodic","Hospital",21,"F",2.5,0.43,0,200,7,4,1,"Gain",1,"(60,80]"
"1:268",68,"first_win",232,0,"left",0.5,"1","first_time",0.8875,"cd3","Episodic","Hospital",21,"F",2.5,0.43,0,200,7,4,1,"Gain",0,"(60,80]"
"1:269",69,"first_win",359,1,"right",0,"3","first_time",0.8875,"cd3","Episodic","Hospital",21,"F",2.5,0.43,0,200,7,4,1,"Gain",1,"(60,80]"
"1:270",70,"first_win",295,0,"left",0.5,"1","first_time",0.9,"cd3","Episodic","Hospital",21,"F",2.5,0.43,0,200,7,4,0,"Gain",0,"(60,80]"
"1:271",71,"first_win",396,0,"left",0.5,"1","first_time",0.9125,"cd3","Episodic","Hospital",21,"F",2.5,0.43,0,200,7,4,0,"Gain",0,"(60,80]"
"1:272",72,"first_win",339,0,"left",0.5,"1","first_time",0.925,"cd3","Episodic","Hospital",21,"F",2.5,0.43,0,200,7,4,0,"Gain",0,"(60,80]"
"1:273",73,"first_win",201,1,"right",1,"3","first_time",0.95,"cd3","Episodic","Hospital",21,"F",2.5,0.43,0,200,7,4,0,"Gain",1,"(60,80]"
"1:274",74,"first_win",412,0,"left",0.5,"1","first_time",0.9625,"cd3","Episodic","Hospital",21,"F",2.5,0.43,0,200,7,4,1,"Gain",0,"(60,80]"
"1:275",75,"first_win",337,0,"left",0.5,"1","first_time",0.975,"cd3","Episodic","Hospital",21,"F",2.5,0.43,0,200,7,4,1,"Gain",0,"(60,80]"
"1:276",76,"first_win",358,0,"left",0.5,"1","first_time",0.9875,"cd3","Episodic","Hospital",21,"F",2.5,0.43,0,200,7,4,1,"Gain",0,"(60,80]"
"1:277",77,"first_win",354,1,"right",1,"3","first_time",1.0125,"cd3","Episodic","Hospital",21,"F",2.5,0.43,0,200,7,4,1,"Gain",1,"(60,80]"
"1:278",78,"first_win",411,1,"right",1,"3","first_time",1.0375,"cd3","Episodic","Hospital",21,"F",2.5,0.43,0,200,7,4,1,"Gain",1,"(60,80]"
"1:279",79,"first_win",429,1,"right",0,"3","first_time",1.0375,"cd3","Episodic","Hospital",21,"F",2.5,0.43,0,200,7,4,1,"Gain",1,"(60,80]"
"1:280",80,"first_win",315,1,"right",1,"3","first_time",1.0625,"cd3","Episodic","Hospital",21,"F",2.5,0.43,0,200,7,4,0,"Gain",1,"(60,80]"
"1:281",81,"first_win",94,0,"left",0.5,"1","first_time",1.075,"cd3","Episodic","Hospital",21,"F",2.5,0.43,0,200,7,5,1,"Gain",0,"(80,100]"
"1:282",82,"first_win",154,1,"right",0,"3","first_time",1.075,"cd3","Episodic","Hospital",21,"F",2.5,0.43,0,200,7,5,1,"Gain",1,"(80,100]"
"1:283",83,"first_win",136,0,"left",0.5,"1","first_time",1.0875,"cd3","Episodic","Hospital",21,"F",2.5,0.43,0,200,7,5,0,"Gain",0,"(80,100]"
"1:284",84,"first_win",242,0,"left",0.5,"1","first_time",1.1,"cd3","Episodic","Hospital",21,"F",2.5,0.43,0,200,7,5,0,"Gain",0,"(80,100]"
"1:285",85,"first_win",362,1,"right",0,"3","first_time",1.1,"cd3","Episodic","Hospital",21,"F",2.5,0.43,0,200,7,5,0,"Gain",1,"(80,100]"
"1:286",86,"first_win",384,1,"right",0,"3","first_time",1.1,"cd3","Episodic","Hospital",21,"F",2.5,0.43,0,200,7,5,0,"Gain",1,"(80,100]"
"1:287",87,"first_win",375,0,"left",0.5,"1","first_time",1.1125,"cd3","Episodic","Hospital",21,"F",2.5,0.43,0,200,7,5,0,"Gain",0,"(80,100]"
"1:288",88,"first_win",365,0,"left",0.5,"1","first_time",1.125,"cd3","Episodic","Hospital",21,"F",2.5,0.43,0,200,7,5,0,"Gain",0,"(80,100]"
"1:289",89,"first_win",392,0,"left",0.5,"1","first_time",1.1375,"cd3","Episodic","Hospital",21,"F",2.5,0.43,0,200,7,5,0,"Gain",0,"(80,100]"
"1:290",90,"first_win",426,0,"left",0.5,"1","first_time",1.15,"cd3","Episodic","Hospital",21,"F",2.5,0.43,0,200,7,5,0,"Gain",0,"(80,100]"
"1:291",91,"first_win",134,0,"left",0.5,"1","first_time",1.1625,"cd3","Episodic","Hospital",21,"F",2.5,0.43,0,200,7,5,0,"Gain",0,"(80,100]"
"1:292",92,"first_win",403,0,"left",0.5,"1","first_time",1.175,"cd3","Episodic","Hospital",21,"F",2.5,0.43,0,200,7,5,0,"Gain",0,"(80,100]"
"1:293",93,"first_win",139,0,"left",0.5,"1","first_time",1.1875,"cd3","Episodic","Hospital",21,"F",2.5,0.43,0,200,7,5,0,"Gain",0,"(80,100]"
"1:294",94,"first_win",78,1,"right",0,"3","first_time",1.1875,"cd3","Episodic","Hospital",21,"F",2.5,0.43,0,200,7,5,0,"Gain",1,"(80,100]"
"1:295",95,"first_win",228,0,"left",0.5,"1","first_time",1.2,"cd3","Episodic","Hospital",21,"F",2.5,0.43,0,200,7,5,0,"Gain",0,"(80,100]"
"1:296",96,"first_win",391,0,"left",0.5,"1","first_time",1.2125,"cd3","Episodic","Hospital",21,"F",2.5,0.43,0,200,7,5,0,"Gain",0,"(80,100]"
"1:297",97,"first_win",263,0,"left",0.5,"1","first_time",1.225,"cd3","Episodic","Hospital",21,"F",2.5,0.43,0,200,7,5,0,"Gain",0,"(80,100]"
"1:298",98,"first_win",377,0,"left",0.5,"1","first_time",1.2375,"cd3","Episodic","Hospital",21,"F",2.5,0.43,0,200,7,5,0,"Gain",0,"(80,100]"
"1:299",99,"first_win",344,1,"right",1,"3","first_time",1.2625,"cd3","Episodic","Hospital",21,"F",2.5,0.43,0,200,7,5,0,"Gain",1,"(80,100]"
"1:300",100,"first_win",361,1,"right",0,"3","first_time",1.2625,"cd3","Episodic","Hospital",21,"F",2.5,0.43,0,200,7,5,1,"Gain",1,"(80,100]"
"1:301",1,"first_win",460,1,"right",1,"4","first_time",0.025,"cd4","Episodic","Restaurant",22,"F",2.5,0.614583333333333,0,250,10,1,NA,"Gain",1,"(0,20]"
"1:302",2,"first_win",453,0,"left",0.5,"2","first_time",0.0375,"cd4","Episodic","Restaurant",22,"F",2.5,0.614583333333333,0,250,10,1,1,"Gain",0,"(0,20]"
"1:303",3,"first_win",454,0,"left",0.5,"2","first_time",0.05,"cd4","Episodic","Restaurant",22,"F",2.5,0.614583333333333,0,250,10,1,1,"Gain",0,"(0,20]"
"1:304",4,"first_win",163,0,"left",0.5,"2","first_time",0.0625,"cd4","Episodic","Restaurant",22,"F",2.5,0.614583333333333,0,250,10,1,1,"Gain",0,"(0,20]"
"1:305",5,"first_win",436,1,"right",0,"4","first_time",0.0625,"cd4","Episodic","Restaurant",22,"F",2.5,0.614583333333333,0,250,10,1,1,"Gain",1,"(0,20]"
"1:306",6,"first_win",456,1,"right",1,"4","first_time",0.0875,"cd4","Episodic","Restaurant",22,"F",2.5,0.614583333333333,0,250,10,1,0,"Gain",1,"(0,20]"
"1:307",7,"first_win",459,1,"right",0,"4","first_time",0.0875,"cd4","Episodic","Restaurant",22,"F",2.5,0.614583333333333,0,250,10,1,1,"Gain",1,"(0,20]"
"1:308",8,"first_win",510,1,"right",1,"4","first_time",0.1125,"cd4","Episodic","Restaurant",22,"F",2.5,0.614583333333333,0,250,10,1,0,"Gain",1,"(0,20]"
"1:309",9,"first_win",498,0,"left",0.5,"2","first_time",0.125,"cd4","Episodic","Restaurant",22,"F",2.5,0.614583333333333,0,250,10,1,1,"Gain",0,"(0,20]"
"1:310",10,"first_win",487,0,"left",0.5,"2","first_time",0.1375,"cd4","Episodic","Restaurant",22,"F",2.5,0.614583333333333,0,250,10,1,1,"Gain",0,"(0,20]"
"1:311",11,"first_win",88,1,"right",0,"4","first_time",0.1375,"cd4","Episodic","Restaurant",22,"F",2.5,0.614583333333333,0,250,10,1,1,"Gain",1,"(0,20]"
"1:312",12,"first_win",439,1,"right",0,"4","first_time",0.1375,"cd4","Episodic","Restaurant",22,"F",2.5,0.614583333333333,0,250,10,1,0,"Gain",1,"(0,20]"
"1:313",13,"first_win",2,NA,NA,-1,NA,"first_time",0.1375,"cd4","Episodic","Restaurant",22,"F",2.5,0.614583333333333,0,250,10,1,0,"Gain",NA,"(0,20]"
"1:314",14,"first_win",482,1,"right",0,"4","first_time",0.1375,"cd4","Episodic","Restaurant",22,"F",2.5,0.614583333333333,0,250,10,1,0,"Gain",1,"(0,20]"
"1:315",15,"first_win",512,1,"right",0,"4","first_time",0.1375,"cd4","Episodic","Restaurant",22,"F",2.5,0.614583333333333,0,250,10,1,0,"Gain",1,"(0,20]"
"1:316",16,"first_win",457,1,"right",1,"4","first_time",0.1625,"cd4","Episodic","Restaurant",22,"F",2.5,0.614583333333333,0,250,10,1,0,"Gain",1,"(0,20]"
"1:317",17,"first_win",448,0,"left",0.5,"2","first_time",0.175,"cd4","Episodic","Restaurant",22,"F",2.5,0.614583333333333,0,250,10,1,1,"Gain",0,"(0,20]"
"1:318",18,"first_win",499,1,"right",0,"4","first_time",0.175,"cd4","Episodic","Restaurant",22,"F",2.5,0.614583333333333,0,250,10,1,1,"Gain",1,"(0,20]"
"1:319",19,"first_win",445,1,"right",0,"4","first_time",0.175,"cd4","Episodic","Restaurant",22,"F",2.5,0.614583333333333,0,250,10,1,0,"Gain",1,"(0,20]"
"1:320",20,"first_win",293,1,"right",1,"4","first_time",0.2,"cd4","Episodic","Restaurant",22,"F",2.5,0.614583333333333,0,250,10,1,0,"Gain",1,"(0,20]"
"1:321",21,"first_win",509,0,"left",0.5,"2","first_time",0.2125,"cd4","Episodic","Restaurant",22,"F",2.5,0.614583333333333,0,250,10,2,1,"Gain",0,"(20,40]"
"1:322",22,"first_win",495,0,"left",0.5,"2","first_time",0.225,"cd4","Episodic","Restaurant",22,"F",2.5,0.614583333333333,0,250,10,2,1,"Gain",0,"(20,40]"
"1:323",23,"first_win",143,1,"right",1,"4","first_time",0.25,"cd4","Episodic","Restaurant",22,"F",2.5,0.614583333333333,0,250,10,2,1,"Gain",1,"(20,40]"
"1:324",24,"first_win",442,1,"right",1,"4","first_time",0.275,"cd4","Episodic","Restaurant",22,"F",2.5,0.614583333333333,0,250,10,2,1,"Gain",1,"(20,40]"
"1:325",25,"first_win",447,1,"right",1,"4","first_time",0.3,"cd4","Episodic","Restaurant",22,"F",2.5,0.614583333333333,0,250,10,2,1,"Gain",1,"(20,40]"
"1:326",26,"first_win",503,1,"right",1,"4","first_time",0.325,"cd4","Episodic","Restaurant",22,"F",2.5,0.614583333333333,0,250,10,2,1,"Gain",1,"(20,40]"
"1:327",27,"first_win",288,1,"right",0,"4","first_time",0.325,"cd4","Episodic","Restaurant",22,"F",2.5,0.614583333333333,0,250,10,2,1,"Gain",1,"(20,40]"
"1:328",28,"first_win",491,1,"right",1,"4","first_time",0.35,"cd4","Episodic","Restaurant",22,"F",2.5,0.614583333333333,0,250,10,2,0,"Gain",1,"(20,40]"
"1:329",29,"first_win",506,1,"right",1,"4","first_time",0.375,"cd4","Episodic","Restaurant",22,"F",2.5,0.614583333333333,0,250,10,2,1,"Gain",1,"(20,40]"
"1:330",30,"first_win",108,1,"right",0,"4","first_time",0.375,"cd4","Episodic","Restaurant",22,"F",2.5,0.614583333333333,0,250,10,2,1,"Gain",1,"(20,40]"
"1:331",31,"first_win",75,1,"right",0,"4","first_time",0.375,"cd4","Episodic","Restaurant",22,"F",2.5,0.614583333333333,0,250,10,2,0,"Gain",1,"(20,40]"
"1:332",32,"first_win",215,0,"left",0.5,"2","first_time",0.3875,"cd4","Episodic","Restaurant",22,"F",2.5,0.614583333333333,0,250,10,2,0,"Gain",0,"(20,40]"
"1:333",33,"first_win",487,0,"left",0.5,"2","first_time",0.4,"cd4","Episodic","Restaurant",22,"F",2.5,0.614583333333333,0,250,10,2,0,"Gain",0,"(20,40]"
"1:334",34,"first_win",368,1,"right",0,"4","first_time",0.4,"cd4","Episodic","Restaurant",22,"F",2.5,0.614583333333333,0,250,10,2,0,"Gain",1,"(20,40]"
"1:335",35,"first_win",219,0,"left",0.5,"2","first_time",0.4125,"cd4","Episodic","Restaurant",22,"F",2.5,0.614583333333333,0,250,10,2,0,"Gain",0,"(20,40]"
"1:336",36,"first_win",3,1,"right",1,"4","first_time",0.4375,"cd4","Episodic","Restaurant",22,"F",2.5,0.614583333333333,0,250,10,2,0,"Gain",1,"(20,40]"
"1:337",37,"first_win",484,1,"right",1,"4","first_time",0.4625,"cd4","Episodic","Restaurant",22,"F",2.5,0.614583333333333,0,250,10,2,1,"Gain",1,"(20,40]"
"1:338",38,"first_win",382,1,"right",0,"4","first_time",0.4625,"cd4","Episodic","Restaurant",22,"F",2.5,0.614583333333333,0,250,10,2,1,"Gain",1,"(20,40]"
"1:339",39,"first_win",475,0,"left",0.5,"2","first_time",0.475,"cd4","Episodic","Restaurant",22,"F",2.5,0.614583333333333,0,250,10,2,0,"Gain",0,"(20,40]"
"1:340",40,"first_win",219,0,"left",0.5,"2","first_time",0.4875,"cd4","Episodic","Restaurant",22,"F",2.5,0.614583333333333,0,250,10,2,0,"Gain",0,"(20,40]"
"1:341",41,"first_win",175,1,"right",1,"4","first_time",0.5125,"cd4","Episodic","Restaurant",22,"F",2.5,0.614583333333333,0,250,10,3,0,"Gain",1,"(40,60]"
"1:342",42,"first_win",489,1,"right",0,"4","first_time",0.5125,"cd4","Episodic","Restaurant",22,"F",2.5,0.614583333333333,0,250,10,3,1,"Gain",1,"(40,60]"
"1:343",43,"first_win",71,0,"left",0.5,"2","first_time",0.525,"cd4","Episodic","Restaurant",22,"F",2.5,0.614583333333333,0,250,10,3,0,"Gain",0,"(40,60]"
"1:344",44,"first_win",362,0,"left",0.5,"2","first_time",0.5375,"cd4","Episodic","Restaurant",22,"F",2.5,0.614583333333333,0,250,10,3,0,"Gain",0,"(40,60]"
"1:345",45,"first_win",103,0,"left",0.5,"2","first_time",0.55,"cd4","Episodic","Restaurant",22,"F",2.5,0.614583333333333,0,250,10,3,0,"Gain",0,"(40,60]"
"1:346",46,"first_win",434,1,"right",1,"4","first_time",0.575,"cd4","Episodic","Restaurant",22,"F",2.5,0.614583333333333,0,250,10,3,0,"Gain",1,"(40,60]"
"1:347",47,"first_win",508,1,"right",1,"4","first_time",0.6,"cd4","Episodic","Restaurant",22,"F",2.5,0.614583333333333,0,250,10,3,1,"Gain",1,"(40,60]"
"1:348",48,"first_win",511,1,"right",1,"4","first_time",0.625,"cd4","Episodic","Restaurant",22,"F",2.5,0.614583333333333,0,250,10,3,1,"Gain",1,"(40,60]"
"1:349",49,"first_win",440,0,"left",0.5,"2","first_time",0.6375,"cd4","Episodic","Restaurant",22,"F",2.5,0.614583333333333,0,250,10,3,1,"Gain",0,"(40,60]"
"1:350",50,"first_win",466,1,"right",0,"4","first_time",0.6375,"cd4","Episodic","Restaurant",22,"F",2.5,0.614583333333333,0,250,10,3,1,"Gain",1,"(40,60]"
"1:351",51,"first_win",228,1,"right",1,"4","first_time",0.6625,"cd4","Episodic","Restaurant",22,"F",2.5,0.614583333333333,0,250,10,3,0,"Gain",1,"(40,60]"
"1:352",52,"first_win",261,1,"right",1,"4","first_time",0.6875,"cd4","Episodic","Restaurant",22,"F",2.5,0.614583333333333,0,250,10,3,1,"Gain",1,"(40,60]"
"1:353",53,"first_win",289,1,"right",1,"4","first_time",0.7125,"cd4","Episodic","Restaurant",22,"F",2.5,0.614583333333333,0,250,10,3,1,"Gain",1,"(40,60]"
"1:354",54,"first_win",490,1,"right",0,"4","first_time",0.7125,"cd4","Episodic","Restaurant",22,"F",2.5,0.614583333333333,0,250,10,3,1,"Gain",1,"(40,60]"
"1:355",55,"first_win",115,1,"right",0,"4","first_time",0.7125,"cd4","Episodic","Restaurant",22,"F",2.5,0.614583333333333,0,250,10,3,0,"Gain",1,"(40,60]"
"1:356",56,"first_win",202,0,"left",0.5,"2","first_time",0.725,"cd4","Episodic","Restaurant",22,"F",2.5,0.614583333333333,0,250,10,3,0,"Gain",0,"(40,60]"
"1:357",57,"first_win",470,0,"left",0.5,"2","first_time",0.7375,"cd4","Episodic","Restaurant",22,"F",2.5,0.614583333333333,0,250,10,3,0,"Gain",0,"(40,60]"
"1:358",58,"first_win",469,0,"left",0.5,"2","first_time",0.75,"cd4","Episodic","Restaurant",22,"F",2.5,0.614583333333333,0,250,10,3,0,"Gain",0,"(40,60]"
"1:359",59,"first_win",505,0,"left",0.5,"2","first_time",0.7625,"cd4","Episodic","Restaurant",22,"F",2.5,0.614583333333333,0,250,10,3,0,"Gain",0,"(40,60]"
"1:360",60,"first_win",468,1,"right",1,"4","first_time",0.7875,"cd4","Episodic","Restaurant",22,"F",2.5,0.614583333333333,0,250,10,3,0,"Gain",1,"(40,60]"
"1:361",61,"first_win",147,1,"right",1,"4","first_time",0.8125,"cd4","Episodic","Restaurant",22,"F",2.5,0.614583333333333,0,250,10,4,1,"Gain",1,"(60,80]"
"1:362",62,"first_win",486,1,"right",1,"4","first_time",0.8375,"cd4","Episodic","Restaurant",22,"F",2.5,0.614583333333333,0,250,10,4,1,"Gain",1,"(60,80]"
"1:363",63,"first_win",497,1,"right",0,"4","first_time",0.8375,"cd4","Episodic","Restaurant",22,"F",2.5,0.614583333333333,0,250,10,4,1,"Gain",1,"(60,80]"
"1:364",64,"first_win",464,0,"left",0.5,"2","first_time",0.85,"cd4","Episodic","Restaurant",22,"F",2.5,0.614583333333333,0,250,10,4,0,"Gain",0,"(60,80]"
"1:365",65,"first_win",478,0,"left",0.5,"2","first_time",0.8625,"cd4","Episodic","Restaurant",22,"F",2.5,0.614583333333333,0,250,10,4,0,"Gain",0,"(60,80]"
"1:366",66,"first_win",139,0,"left",0.5,"2","first_time",0.875,"cd4","Episodic","Restaurant",22,"F",2.5,0.614583333333333,0,250,10,4,0,"Gain",0,"(60,80]"
"1:367",67,"first_win",450,0,"left",0.5,"2","first_time",0.8875,"cd4","Episodic","Restaurant",22,"F",2.5,0.614583333333333,0,250,10,4,0,"Gain",0,"(60,80]"
"1:368",68,"first_win",3,1,"right",0,"4","first_time",0.8875,"cd4","Episodic","Restaurant",22,"F",2.5,0.614583333333333,0,250,10,4,0,"Gain",1,"(60,80]"
"1:369",69,"first_win",344,1,"right",0,"4","first_time",0.8875,"cd4","Episodic","Restaurant",22,"F",2.5,0.614583333333333,0,250,10,4,0,"Gain",1,"(60,80]"
"1:370",70,"first_win",37,1,"right",0,"4","first_time",0.8875,"cd4","Episodic","Restaurant",22,"F",2.5,0.614583333333333,0,250,10,4,0,"Gain",1,"(60,80]"
"1:371",71,"first_win",2,NA,NA,-1,NA,"first_time",0.8875,"cd4","Episodic","Restaurant",22,"F",2.5,0.614583333333333,0,250,10,4,0,"Gain",NA,"(60,80]"
"1:372",72,"first_win",514,1,"right",0,"4","first_time",0.8875,"cd4","Episodic","Restaurant",22,"F",2.5,0.614583333333333,0,250,10,4,0,"Gain",1,"(60,80]"
"1:373",73,"first_win",3,0,"left",0.5,"2","first_time",0.9,"cd4","Episodic","Restaurant",22,"F",2.5,0.614583333333333,0,250,10,4,0,"Gain",0,"(60,80]"
"1:374",74,"first_win",83,0,"left",0.5,"2","first_time",0.9125,"cd4","Episodic","Restaurant",22,"F",2.5,0.614583333333333,0,250,10,4,0,"Gain",0,"(60,80]"
"1:375",75,"first_win",2,NA,NA,-1,NA,"first_time",0.9125,"cd4","Episodic","Restaurant",22,"F",2.5,0.614583333333333,0,250,10,4,0,"Gain",NA,"(60,80]"
"1:376",76,"first_win",115,1,"right",0,"4","first_time",0.9125,"cd4","Episodic","Restaurant",22,"F",2.5,0.614583333333333,0,250,10,4,0,"Gain",1,"(60,80]"
"1:377",77,"first_win",507,0,"left",0.5,"2","first_time",0.925,"cd4","Episodic","Restaurant",22,"F",2.5,0.614583333333333,0,250,10,4,0,"Gain",0,"(60,80]"
"1:378",78,"first_win",115,0,"left",0.5,"2","first_time",0.9375,"cd4","Episodic","Restaurant",22,"F",2.5,0.614583333333333,0,250,10,4,0,"Gain",0,"(60,80]"
"1:379",79,"first_win",443,0,"left",0.5,"2","first_time",0.95,"cd4","Episodic","Restaurant",22,"F",2.5,0.614583333333333,0,250,10,4,0,"Gain",0,"(60,80]"
"1:380",80,"first_win",2,NA,NA,-1,NA,"first_time",0.95,"cd4","Episodic","Restaurant",22,"F",2.5,0.614583333333333,0,250,10,4,0,"Gain",NA,"(60,80]"
"1:381",81,"first_win",492,1,"right",0,"4","first_time",0.95,"cd4","Episodic","Restaurant",22,"F",2.5,0.614583333333333,0,250,10,5,0,"Gain",1,"(80,100]"
"1:382",82,"first_win",126,1,"right",1,"4","first_time",0.975,"cd4","Episodic","Restaurant",22,"F",2.5,0.614583333333333,0,250,10,5,0,"Gain",1,"(80,100]"
"1:383",83,"first_win",128,1,"right",1,"4","first_time",1,"cd4","Episodic","Restaurant",22,"F",2.5,0.614583333333333,0,250,10,5,1,"Gain",1,"(80,100]"
"1:384",84,"first_win",470,1,"right",1,"4","first_time",1.025,"cd4","Episodic","Restaurant",22,"F",2.5,0.614583333333333,0,250,10,5,1,"Gain",1,"(80,100]"
"1:385",85,"first_win",347,1,"right",0,"4","first_time",1.025,"cd4","Episodic","Restaurant",22,"F",2.5,0.614583333333333,0,250,10,5,1,"Gain",1,"(80,100]"
"1:386",86,"first_win",364,0,"left",0.5,"2","first_time",1.0375,"cd4","Episodic","Restaurant",22,"F",2.5,0.614583333333333,0,250,10,5,0,"Gain",0,"(80,100]"
"1:387",87,"first_win",246,0,"left",0.5,"2","first_time",1.05,"cd4","Episodic","Restaurant",22,"F",2.5,0.614583333333333,0,250,10,5,0,"Gain",0,"(80,100]"
"1:388",88,"first_win",474,0,"left",0.5,"2","first_time",1.0625,"cd4","Episodic","Restaurant",22,"F",2.5,0.614583333333333,0,250,10,5,0,"Gain",0,"(80,100]"
"1:389",89,"first_win",55,0,"left",0.5,"2","first_time",1.075,"cd4","Episodic","Restaurant",22,"F",2.5,0.614583333333333,0,250,10,5,0,"Gain",0,"(80,100]"
"1:390",90,"first_win",207,0,"left",0.5,"2","first_time",1.0875,"cd4","Episodic","Restaurant",22,"F",2.5,0.614583333333333,0,250,10,5,0,"Gain",0,"(80,100]"
"1:391",91,"first_win",353,1,"right",0,"4","first_time",1.0875,"cd4","Episodic","Restaurant",22,"F",2.5,0.614583333333333,0,250,10,5,0,"Gain",1,"(80,100]"
"1:392",92,"first_win",467,1,"right",1,"4","first_time",1.1125,"cd4","Episodic","Restaurant",22,"F",2.5,0.614583333333333,0,250,10,5,0,"Gain",1,"(80,100]"
"1:393",93,"first_win",285,1,"right",1,"4","first_time",1.1375,"cd4","Episodic","Restaurant",22,"F",2.5,0.614583333333333,0,250,10,5,1,"Gain",1,"(80,100]"
"1:394",94,"first_win",80,1,"right",1,"4","first_time",1.1625,"cd4","Episodic","Restaurant",22,"F",2.5,0.614583333333333,0,250,10,5,1,"Gain",1,"(80,100]"
"1:395",95,"first_win",74,1,"right",0,"4","first_time",1.1625,"cd4","Episodic","Restaurant",22,"F",2.5,0.614583333333333,0,250,10,5,1,"Gain",1,"(80,100]"
"1:396",96,"first_win",155,0,"left",0.5,"2","first_time",1.175,"cd4","Episodic","Restaurant",22,"F",2.5,0.614583333333333,0,250,10,5,0,"Gain",0,"(80,100]"
"1:397",97,"first_win",488,0,"left",0.5,"2","first_time",1.1875,"cd4","Episodic","Restaurant",22,"F",2.5,0.614583333333333,0,250,10,5,0,"Gain",0,"(80,100]"
"1:398",98,"first_win",234,1,"right",0,"4","first_time",1.1875,"cd4","Episodic","Restaurant",22,"F",2.5,0.614583333333333,0,250,10,5,0,"Gain",1,"(80,100]"
"1:399",99,"first_win",86,1,"right",0,"4","first_time",1.1875,"cd4","Episodic","Restaurant",22,"F",2.5,0.614583333333333,0,250,10,5,0,"Gain",1,"(80,100]"
"1:400",100,"first_win",231,1,"right",1,"4","first_time",1.2125,"cd4","Episodic","Restaurant",22,"F",2.5,0.614583333333333,0,250,10,5,0,"Gain",1,"(80,100]"
"1:601",1,"first_win",2,NA,NA,-1,NA,"first_time",0,"cd7","Episodic","Hospital",19,"F",2.5,0.252525252525253,40,205,9,1,NA,"Gain",NA,"(0,20]"
"1:602",2,"first_win",427,1,"left",1,"3","first_time",0.025,"cd7","Episodic","Hospital",19,"F",2.5,0.252525252525253,40,205,9,1,NA,"Gain",0,"(0,20]"
"1:603",3,"first_win",702,1,"left",0,"3","first_time",0.025,"cd7","Episodic","Hospital",19,"F",2.5,0.252525252525253,40,205,9,1,1,"Gain",0,"(0,20]"
"1:604",4,"first_win",680,1,"left",1,"3","first_time",0.05,"cd7","Episodic","Hospital",19,"F",2.5,0.252525252525253,40,205,9,1,0,"Gain",0,"(0,20]"
"1:605",5,"first_win",361,0,"right",0.5,"4","first_time",0.0625,"cd7","Episodic","Hospital",19,"F",2.5,0.252525252525253,40,205,9,1,1,"Gain",1,"(0,20]"
"1:606",6,"first_win",110,0,"right",0.5,"4","first_time",0.075,"cd7","Episodic","Hospital",19,"F",2.5,0.252525252525253,40,205,9,1,1,"Gain",1,"(0,20]"
"1:607",7,"first_win",710,0,"right",0.5,"4","first_time",0.0875,"cd7","Episodic","Hospital",19,"F",2.5,0.252525252525253,40,205,9,1,1,"Gain",1,"(0,20]"
"1:608",8,"first_win",474,1,"left",0,"3","first_time",0.0875,"cd7","Episodic","Hospital",19,"F",2.5,0.252525252525253,40,205,9,1,1,"Gain",0,"(0,20]"
"1:609",9,"first_win",472,1,"left",1,"3","first_time",0.1125,"cd7","Episodic","Hospital",19,"F",2.5,0.252525252525253,40,205,9,1,0,"Gain",0,"(0,20]"
"1:610",10,"first_win",713,1,"left",0,"3","first_time",0.1125,"cd7","Episodic","Hospital",19,"F",2.5,0.252525252525253,40,205,9,1,1,"Gain",0,"(0,20]"
"1:611",11,"first_win",237,1,"left",1,"3","first_time",0.1375,"cd7","Episodic","Hospital",19,"F",2.5,0.252525252525253,40,205,9,1,0,"Gain",0,"(0,20]"
"1:612",12,"first_win",274,1,"left",0,"3","first_time",0.1375,"cd7","Episodic","Hospital",19,"F",2.5,0.252525252525253,40,205,9,1,1,"Gain",0,"(0,20]"
"1:613",13,"first_win",270,1,"left",0,"3","first_time",0.1375,"cd7","Episodic","Hospital",19,"F",2.5,0.252525252525253,40,205,9,1,0,"Gain",0,"(0,20]"
"1:614",14,"first_win",193,1,"left",1,"3","first_time",0.1625,"cd7","Episodic","Hospital",19,"F",2.5,0.252525252525253,40,205,9,1,0,"Gain",0,"(0,20]"
"1:615",15,"first_win",360,0,"right",0.5,"4","first_time",0.175,"cd7","Episodic","Hospital",19,"F",2.5,0.252525252525253,40,205,9,1,1,"Gain",1,"(0,20]"
"1:616",16,"first_win",700,0,"right",0.5,"4","first_time",0.1875,"cd7","Episodic","Hospital",19,"F",2.5,0.252525252525253,40,205,9,1,1,"Gain",1,"(0,20]"
"1:617",17,"first_win",210,0,"right",0.5,"4","first_time",0.2,"cd7","Episodic","Hospital",19,"F",2.5,0.252525252525253,40,205,9,1,1,"Gain",1,"(0,20]"
"1:618",18,"first_win",62,0,"right",0.5,"4","first_time",0.2125,"cd7","Episodic","Hospital",19,"F",2.5,0.252525252525253,40,205,9,1,1,"Gain",1,"(0,20]"
"1:619",19,"first_win",695,0,"right",0.5,"4","first_time",0.225,"cd7","Episodic","Hospital",19,"F",2.5,0.252525252525253,40,205,9,1,1,"Gain",1,"(0,20]"
"1:620",20,"first_win",466,1,"left",0,"3","first_time",0.225,"cd7","Episodic","Hospital",19,"F",2.5,0.252525252525253,40,205,9,1,1,"Gain",0,"(0,20]"
"1:621",21,"first_win",428,1,"left",0,"3","first_time",0.225,"cd7","Episodic","Hospital",19,"F",2.5,0.252525252525253,40,205,9,2,0,"Gain",0,"(20,40]"
"1:622",22,"first_win",196,1,"left",0,"3","first_time",0.225,"cd7","Episodic","Hospital",19,"F",2.5,0.252525252525253,40,205,9,2,0,"Gain",0,"(20,40]"
"1:623",23,"first_win",39,1,"left",0,"3","first_time",0.225,"cd7","Episodic","Hospital",19,"F",2.5,0.252525252525253,40,205,9,2,0,"Gain",0,"(20,40]"
"1:624",24,"first_win",49,0,"right",0.5,"4","first_time",0.2375,"cd7","Episodic","Hospital",19,"F",2.5,0.252525252525253,40,205,9,2,0,"Gain",1,"(20,40]"
"1:625",25,"first_win",201,0,"right",0.5,"4","first_time",0.25,"cd7","Episodic","Hospital",19,"F",2.5,0.252525252525253,40,205,9,2,0,"Gain",1,"(20,40]"
"1:626",26,"first_win",51,0,"right",0.5,"4","first_time",0.2625,"cd7","Episodic","Hospital",19,"F",2.5,0.252525252525253,40,205,9,2,0,"Gain",1,"(20,40]"
"1:627",27,"first_win",706,0,"right",0.5,"4","first_time",0.275,"cd7","Episodic","Hospital",19,"F",2.5,0.252525252525253,40,205,9,2,0,"Gain",1,"(20,40]"
"1:628",28,"first_win",24,0,"right",0.5,"4","first_time",0.2875,"cd7","Episodic","Hospital",19,"F",2.5,0.252525252525253,40,205,9,2,0,"Gain",1,"(20,40]"
"1:629",29,"first_win",458,0,"right",0.5,"4","first_time",0.3,"cd7","Episodic","Hospital",19,"F",2.5,0.252525252525253,40,205,9,2,0,"Gain",1,"(20,40]"
"1:630",30,"first_win",84,0,"right",0.5,"4","first_time",0.3125,"cd7","Episodic","Hospital",19,"F",2.5,0.252525252525253,40,205,9,2,0,"Gain",1,"(20,40]"
"1:631",31,"first_win",365,0,"right",0.5,"4","first_time",0.325,"cd7","Episodic","Hospital",19,"F",2.5,0.252525252525253,40,205,9,2,0,"Gain",1,"(20,40]"
"1:632",32,"first_win",67,0,"right",0.5,"4","first_time",0.3375,"cd7","Episodic","Hospital",19,"F",2.5,0.252525252525253,40,205,9,2,0,"Gain",1,"(20,40]"
"1:633",33,"first_win",682,0,"right",0.5,"4","first_time",0.35,"cd7","Episodic","Hospital",19,"F",2.5,0.252525252525253,40,205,9,2,0,"Gain",1,"(20,40]"
"1:634",34,"first_win",43,0,"right",0.5,"4","first_time",0.3625,"cd7","Episodic","Hospital",19,"F",2.5,0.252525252525253,40,205,9,2,0,"Gain",1,"(20,40]"
"1:635",35,"first_win",88,0,"right",0.5,"4","first_time",0.375,"cd7","Episodic","Hospital",19,"F",2.5,0.252525252525253,40,205,9,2,0,"Gain",1,"(20,40]"
"1:636",36,"first_win",349,0,"right",0.5,"4","first_time",0.3875,"cd7","Episodic","Hospital",19,"F",2.5,0.252525252525253,40,205,9,2,0,"Gain",1,"(20,40]"
"1:637",37,"first_win",107,0,"right",0.5,"4","first_time",0.4,"cd7","Episodic","Hospital",19,"F",2.5,0.252525252525253,40,205,9,2,0,"Gain",1,"(20,40]"
"1:638",38,"first_win",63,0,"right",0.5,"4","first_time",0.4125,"cd7","Episodic","Hospital",19,"F",2.5,0.252525252525253,40,205,9,2,0,"Gain",1,"(20,40]"
"1:639",39,"first_win",679,1,"left",1,"3","first_time",0.4375,"cd7","Episodic","Hospital",19,"F",2.5,0.252525252525253,40,205,9,2,0,"Gain",0,"(20,40]"
"1:640",40,"first_win",550,0,"right",0.5,"4","first_time",0.45,"cd7","Episodic","Hospital",19,"F",2.5,0.252525252525253,40,205,9,2,1,"Gain",1,"(20,40]"
"1:641",41,"first_win",707,0,"right",0.5,"4","first_time",0.4625,"cd7","Episodic","Hospital",19,"F",2.5,0.252525252525253,40,205,9,3,1,"Gain",1,"(40,60]"
"1:642",42,"first_win",708,0,"right",0.5,"4","first_time",0.475,"cd7","Episodic","Hospital",19,"F",2.5,0.252525252525253,40,205,9,3,1,"Gain",1,"(40,60]"
"1:643",43,"first_win",291,0,"right",0.5,"4","first_time",0.4875,"cd7","Episodic","Hospital",19,"F",2.5,0.252525252525253,40,205,9,3,1,"Gain",1,"(40,60]"
"1:644",44,"first_win",82,0,"right",0.5,"4","first_time",0.5,"cd7","Episodic","Hospital",19,"F",2.5,0.252525252525253,40,205,9,3,1,"Gain",1,"(40,60]"
"1:645",45,"first_win",205,0,"right",0.5,"4","first_time",0.5125,"cd7","Episodic","Hospital",19,"F",2.5,0.252525252525253,40,205,9,3,1,"Gain",1,"(40,60]"
"1:646",46,"first_win",207,0,"right",0.5,"4","first_time",0.525,"cd7","Episodic","Hospital",19,"F",2.5,0.252525252525253,40,205,9,3,1,"Gain",1,"(40,60]"
"1:647",47,"first_win",175,0,"right",0.5,"4","first_time",0.5375,"cd7","Episodic","Hospital",19,"F",2.5,0.252525252525253,40,205,9,3,1,"Gain",1,"(40,60]"
"1:648",48,"first_win",534,1,"left",1,"3","first_time",0.5625,"cd7","Episodic","Hospital",19,"F",2.5,0.252525252525253,40,205,9,3,1,"Gain",0,"(40,60]"
"1:649",49,"first_win",686,0,"right",0.5,"4","first_time",0.575,"cd7","Episodic","Hospital",19,"F",2.5,0.252525252525253,40,205,9,3,1,"Gain",1,"(40,60]"
"1:650",50,"first_win",370,0,"right",0.5,"4","first_time",0.5875,"cd7","Episodic","Hospital",19,"F",2.5,0.252525252525253,40,205,9,3,1,"Gain",1,"(40,60]"
"1:651",51,"first_win",559,0,"right",0.5,"4","first_time",0.6,"cd7","Episodic","Hospital",19,"F",2.5,0.252525252525253,40,205,9,3,1,"Gain",1,"(40,60]"
"1:652",52,"first_win",224,0,"right",0.5,"4","first_time",0.6125,"cd7","Episodic","Hospital",19,"F",2.5,0.252525252525253,40,205,9,3,1,"Gain",1,"(40,60]"
"1:653",53,"first_win",3,1,"left",1,"3","first_time",0.6375,"cd7","Episodic","Hospital",19,"F",2.5,0.252525252525253,40,205,9,3,1,"Gain",0,"(40,60]"
"1:654",54,"first_win",47,0,"right",0.5,"4","first_time",0.65,"cd7","Episodic","Hospital",19,"F",2.5,0.252525252525253,40,205,9,3,1,"Gain",1,"(40,60]"
"1:655",55,"first_win",467,0,"right",0.5,"4","first_time",0.6625,"cd7","Episodic","Hospital",19,"F",2.5,0.252525252525253,40,205,9,3,1,"Gain",1,"(40,60]"
"1:656",56,"first_win",217,0,"right",0.5,"4","first_time",0.675,"cd7","Episodic","Hospital",19,"F",2.5,0.252525252525253,40,205,9,3,1,"Gain",1,"(40,60]"
"1:657",57,"first_win",125,0,"right",0.5,"4","first_time",0.6875,"cd7","Episodic","Hospital",19,"F",2.5,0.252525252525253,40,205,9,3,1,"Gain",1,"(40,60]"
"1:658",58,"first_win",198,1,"left",1,"3","first_time",0.7125,"cd7","Episodic","Hospital",19,"F",2.5,0.252525252525253,40,205,9,3,1,"Gain",0,"(40,60]"
"1:659",59,"first_win",705,0,"right",0.5,"4","first_time",0.725,"cd7","Episodic","Hospital",19,"F",2.5,0.252525252525253,40,205,9,3,1,"Gain",1,"(40,60]"
"1:660",60,"first_win",25,0,"right",0.5,"4","first_time",0.7375,"cd7","Episodic","Hospital",19,"F",2.5,0.252525252525253,40,205,9,3,1,"Gain",1,"(40,60]"
"1:661",61,"first_win",20,0,"right",0.5,"4","first_time",0.75,"cd7","Episodic","Hospital",19,"F",2.5,0.252525252525253,40,205,9,4,1,"Gain",1,"(60,80]"
"1:662",62,"first_win",43,0,"right",0.5,"4","first_time",0.7625,"cd7","Episodic","Hospital",19,"F",2.5,0.252525252525253,40,205,9,4,1,"Gain",1,"(60,80]"
"1:663",63,"first_win",348,1,"left",1,"3","first_time",0.7875,"cd7","Episodic","Hospital",19,"F",2.5,0.252525252525253,40,205,9,4,1,"Gain",0,"(60,80]"
"1:664",64,"first_win",211,0,"right",0.5,"4","first_time",0.8,"cd7","Episodic","Hospital",19,"F",2.5,0.252525252525253,40,205,9,4,1,"Gain",1,"(60,80]"
"1:665",65,"first_win",693,0,"right",0.5,"4","first_time",0.8125,"cd7","Episodic","Hospital",19,"F",2.5,0.252525252525253,40,205,9,4,1,"Gain",1,"(60,80]"
"1:666",66,"first_win",547,0,"right",0.5,"4","first_time",0.825,"cd7","Episodic","Hospital",19,"F",2.5,0.252525252525253,40,205,9,4,1,"Gain",1,"(60,80]"
"1:667",67,"first_win",53,0,"right",0.5,"4","first_time",0.8375,"cd7","Episodic","Hospital",19,"F",2.5,0.252525252525253,40,205,9,4,1,"Gain",1,"(60,80]"
"1:668",68,"first_win",19,0,"right",0.5,"4","first_time",0.85,"cd7","Episodic","Hospital",19,"F",2.5,0.252525252525253,40,205,9,4,1,"Gain",1,"(60,80]"
"1:669",69,"first_win",687,1,"left",1,"3","first_time",0.875,"cd7","Episodic","Hospital",19,"F",2.5,0.252525252525253,40,205,9,4,1,"Gain",0,"(60,80]"
"1:670",70,"first_win",709,0,"right",0.5,"4","first_time",0.8875,"cd7","Episodic","Hospital",19,"F",2.5,0.252525252525253,40,205,9,4,1,"Gain",1,"(60,80]"
"1:671",71,"first_win",16,0,"right",0.5,"4","first_time",0.9,"cd7","Episodic","Hospital",19,"F",2.5,0.252525252525253,40,205,9,4,1,"Gain",1,"(60,80]"
"1:672",72,"first_win",72,0,"right",0.5,"4","first_time",0.9125,"cd7","Episodic","Hospital",19,"F",2.5,0.252525252525253,40,205,9,4,1,"Gain",1,"(60,80]"
"1:673",73,"first_win",346,0,"right",0.5,"4","first_time",0.925,"cd7","Episodic","Hospital",19,"F",2.5,0.252525252525253,40,205,9,4,1,"Gain",1,"(60,80]"
"1:674",74,"first_win",653,1,"left",0,"3","first_time",0.925,"cd7","Episodic","Hospital",19,"F",2.5,0.252525252525253,40,205,9,4,1,"Gain",0,"(60,80]"
"1:675",75,"first_win",714,0,"right",0.5,"4","first_time",0.9375,"cd7","Episodic","Hospital",19,"F",2.5,0.252525252525253,40,205,9,4,0,"Gain",1,"(60,80]"
"1:676",76,"first_win",704,0,"right",0.5,"4","first_time",0.95,"cd7","Episodic","Hospital",19,"F",2.5,0.252525252525253,40,205,9,4,0,"Gain",1,"(60,80]"
"1:677",77,"first_win",21,0,"right",0.5,"4","first_time",0.9625,"cd7","Episodic","Hospital",19,"F",2.5,0.252525252525253,40,205,9,4,0,"Gain",1,"(60,80]"
"1:678",78,"first_win",24,0,"right",0.5,"4","first_time",0.975,"cd7","Episodic","Hospital",19,"F",2.5,0.252525252525253,40,205,9,4,0,"Gain",1,"(60,80]"
"1:679",79,"first_win",243,0,"right",0.5,"4","first_time",0.9875,"cd7","Episodic","Hospital",19,"F",2.5,0.252525252525253,40,205,9,4,0,"Gain",1,"(60,80]"
"1:680",80,"first_win",20,0,"right",0.5,"4","first_time",1,"cd7","Episodic","Hospital",19,"F",2.5,0.252525252525253,40,205,9,4,0,"Gain",1,"(60,80]"
"1:681",81,"first_win",209,0,"right",0.5,"4","first_time",1.0125,"cd7","Episodic","Hospital",19,"F",2.5,0.252525252525253,40,205,9,5,0,"Gain",1,"(80,100]"
"1:682",82,"first_win",22,1,"left",0,"3","first_time",1.0125,"cd7","Episodic","Hospital",19,"F",2.5,0.252525252525253,40,205,9,5,0,"Gain",0,"(80,100]"
"1:683",83,"first_win",377,1,"left",0,"3","first_time",1.0125,"cd7","Episodic","Hospital",19,"F",2.5,0.252525252525253,40,205,9,5,0,"Gain",0,"(80,100]"
"1:684",84,"first_win",248,0,"right",0.5,"4","first_time",1.025,"cd7","Episodic","Hospital",19,"F",2.5,0.252525252525253,40,205,9,5,0,"Gain",1,"(80,100]"
"1:685",85,"first_win",62,0,"right",0.5,"4","first_time",1.0375,"cd7","Episodic","Hospital",19,"F",2.5,0.252525252525253,40,205,9,5,0,"Gain",1,"(80,100]"
"1:686",86,"first_win",675,0,"right",0.5,"4","first_time",1.05,"cd7","Episodic","Hospital",19,"F",2.5,0.252525252525253,40,205,9,5,0,"Gain",1,"(80,100]"
"1:687",87,"first_win",362,0,"right",0.5,"4","first_time",1.0625,"cd7","Episodic","Hospital",19,"F",2.5,0.252525252525253,40,205,9,5,0,"Gain",1,"(80,100]"
"1:688",88,"first_win",198,0,"right",0.5,"4","first_time",1.075,"cd7","Episodic","Hospital",19,"F",2.5,0.252525252525253,40,205,9,5,0,"Gain",1,"(80,100]"
"1:689",89,"first_win",197,1,"left",1,"3","first_time",1.1,"cd7","Episodic","Hospital",19,"F",2.5,0.252525252525253,40,205,9,5,0,"Gain",0,"(80,100]"
"1:690",90,"first_win",219,0,"right",0.5,"4","first_time",1.1125,"cd7","Episodic","Hospital",19,"F",2.5,0.252525252525253,40,205,9,5,1,"Gain",1,"(80,100]"
"1:691",91,"first_win",698,0,"right",0.5,"4","first_time",1.125,"cd7","Episodic","Hospital",19,"F",2.5,0.252525252525253,40,205,9,5,1,"Gain",1,"(80,100]"
"1:692",92,"first_win",89,0,"right",0.5,"4","first_time",1.1375,"cd7","Episodic","Hospital",19,"F",2.5,0.252525252525253,40,205,9,5,1,"Gain",1,"(80,100]"
"1:693",93,"first_win",197,0,"right",0.5,"4","first_time",1.15,"cd7","Episodic","Hospital",19,"F",2.5,0.252525252525253,40,205,9,5,1,"Gain",1,"(80,100]"
"1:694",94,"first_win",95,1,"left",0,"3","first_time",1.15,"cd7","Episodic","Hospital",19,"F",2.5,0.252525252525253,40,205,9,5,1,"Gain",0,"(80,100]"
"1:695",95,"first_win",88,0,"right",0.5,"4","first_time",1.1625,"cd7","Episodic","Hospital",19,"F",2.5,0.252525252525253,40,205,9,5,0,"Gain",1,"(80,100]"
"1:696",96,"first_win",33,0,"right",0.5,"4","first_time",1.175,"cd7","Episodic","Hospital",19,"F",2.5,0.252525252525253,40,205,9,5,0,"Gain",1,"(80,100]"
"1:697",97,"first_win",688,0,"right",0.5,"4","first_time",1.1875,"cd7","Episodic","Hospital",19,"F",2.5,0.252525252525253,40,205,9,5,0,"Gain",1,"(80,100]"
"1:698",98,"first_win",689,0,"right",0.5,"4","first_time",1.2,"cd7","Episodic","Hospital",19,"F",2.5,0.252525252525253,40,205,9,5,0,"Gain",1,"(80,100]"
"1:699",99,"first_win",640,0,"right",0.5,"4","first_time",1.2125,"cd7","Episodic","Hospital",19,"F",2.5,0.252525252525253,40,205,9,5,0,"Gain",1,"(80,100]"
"1:700",100,"first_win",344,0,"right",0.5,"4","first_time",1.225,"cd7","Episodic","Hospital",19,"F",2.5,0.252525252525253,40,205,9,5,0,"Gain",1,"(80,100]"
"1:701",1,"second_win",736,0,"left",0.5,"3","first_time",0.0125,"cd8","Episodic","Hospital",21,"F",0,0.52,70,240,6,1,NA,"Gain",0,"(0,20]"
"1:702",2,"second_win",733,0,"left",0.5,"3","first_time",0.025,"cd8","Episodic","Hospital",21,"F",0,0.52,70,240,6,1,NA,"Gain",0,"(0,20]"
"1:703",3,"second_win",734,0,"left",0.5,"3","first_time",0.0375,"cd8","Episodic","Hospital",21,"F",0,0.52,70,240,6,1,NA,"Gain",0,"(0,20]"
"1:704",4,"second_win",716,1,"right",0,"4","first_time",0.0375,"cd8","Episodic","Hospital",21,"F",0,0.52,70,240,6,1,NA,"Gain",1,"(0,20]"
"1:705",5,"second_win",729,0,"left",0.5,"3","first_time",0.05,"cd8","Episodic","Hospital",21,"F",0,0.52,70,240,6,1,0,"Gain",0,"(0,20]"
"1:706",6,"second_win",719,0,"left",0.5,"3","first_time",0.0625,"cd8","Episodic","Hospital",21,"F",0,0.52,70,240,6,1,0,"Gain",0,"(0,20]"
"1:707",7,"second_win",723,0,"left",0.5,"3","first_time",0.075,"cd8","Episodic","Hospital",21,"F",0,0.52,70,240,6,1,0,"Gain",0,"(0,20]"
"1:708",8,"second_win",673,1,"right",1,"4","first_time",0.1,"cd8","Episodic","Hospital",21,"F",0,0.52,70,240,6,1,0,"Gain",1,"(0,20]"
"1:709",9,"second_win",725,1,"right",0,"4","first_time",0.1,"cd8","Episodic","Hospital",21,"F",0,0.52,70,240,6,1,1,"Gain",1,"(0,20]"
"1:710",10,"second_win",250,1,"right",1,"4","first_time",0.125,"cd8","Episodic","Hospital",21,"F",0,0.52,70,240,6,1,0,"Gain",1,"(0,20]"
"1:711",11,"second_win",727,0,"left",0.5,"3","first_time",0.1375,"cd8","Episodic","Hospital",21,"F",0,0.52,70,240,6,1,1,"Gain",0,"(0,20]"
"1:712",12,"second_win",752,0,"left",0.5,"3","first_time",0.15,"cd8","Episodic","Hospital",21,"F",0,0.52,70,240,6,1,1,"Gain",0,"(0,20]"
"1:713",13,"second_win",406,1,"right",1,"4","first_time",0.175,"cd8","Episodic","Hospital",21,"F",0,0.52,70,240,6,1,1,"Gain",1,"(0,20]"
"1:714",14,"second_win",754,1,"right",1,"4","first_time",0.2,"cd8","Episodic","Hospital",21,"F",0,0.52,70,240,6,1,1,"Gain",1,"(0,20]"
"1:715",15,"second_win",111,1,"right",0,"4","first_time",0.2,"cd8","Episodic","Hospital",21,"F",0,0.52,70,240,6,1,1,"Gain",1,"(0,20]"
"1:716",16,"second_win",237,1,"right",0,"4","first_time",0.2,"cd8","Episodic","Hospital",21,"F",0,0.52,70,240,6,1,0,"Gain",1,"(0,20]"
"1:717",17,"second_win",732,0,"left",0.5,"3","first_time",0.2125,"cd8","Episodic","Hospital",21,"F",0,0.52,70,240,6,1,0,"Gain",0,"(0,20]"
"1:718",18,"second_win",252,0,"left",0.5,"3","first_time",0.225,"cd8","Episodic","Hospital",21,"F",0,0.52,70,240,6,1,0,"Gain",0,"(0,20]"
"1:719",19,"second_win",708,1,"right",1,"4","first_time",0.25,"cd8","Episodic","Hospital",21,"F",0,0.52,70,240,6,1,0,"Gain",1,"(0,20]"
"1:720",20,"second_win",726,0,"left",0.5,"3","first_time",0.2625,"cd8","Episodic","Hospital",21,"F",0,0.52,70,240,6,1,1,"Gain",0,"(0,20]"
"1:721",21,"second_win",641,1,"right",0,"4","first_time",0.2625,"cd8","Episodic","Hospital",21,"F",0,0.52,70,240,6,2,1,"Gain",1,"(20,40]"
"1:722",22,"second_win",83,0,"left",0.5,"3","first_time",0.275,"cd8","Episodic","Hospital",21,"F",0,0.52,70,240,6,2,0,"Gain",0,"(20,40]"
"1:723",23,"second_win",241,0,"left",0.5,"3","first_time",0.2875,"cd8","Episodic","Hospital",21,"F",0,0.52,70,240,6,2,0,"Gain",0,"(20,40]"
"1:724",24,"second_win",259,0,"left",0.5,"3","first_time",0.3,"cd8","Episodic","Hospital",21,"F",0,0.52,70,240,6,2,0,"Gain",0,"(20,40]"
"1:725",25,"second_win",130,0,"left",0.5,"3","first_time",0.3125,"cd8","Episodic","Hospital",21,"F",0,0.52,70,240,6,2,0,"Gain",0,"(20,40]"
"1:726",26,"second_win",100,0,"left",0.5,"3","first_time",0.325,"cd8","Episodic","Hospital",21,"F",0,0.52,70,240,6,2,0,"Gain",0,"(20,40]"
"1:727",27,"second_win",499,1,"right",0,"4","first_time",0.325,"cd8","Episodic","Hospital",21,"F",0,0.52,70,240,6,2,0,"Gain",1,"(20,40]"
"1:728",28,"second_win",756,1,"right",0,"4","first_time",0.325,"cd8","Episodic","Hospital",21,"F",0,0.52,70,240,6,2,0,"Gain",1,"(20,40]"
"1:729",29,"second_win",762,0,"left",0.5,"3","first_time",0.3375,"cd8","Episodic","Hospital",21,"F",0,0.52,70,240,6,2,0,"Gain",0,"(20,40]"
"1:730",30,"second_win",79,0,"left",0.5,"3","first_time",0.35,"cd8","Episodic","Hospital",21,"F",0,0.52,70,240,6,2,0,"Gain",0,"(20,40]"
"1:731",31,"second_win",750,0,"left",0.5,"3","first_time",0.3625,"cd8","Episodic","Hospital",21,"F",0,0.52,70,240,6,2,0,"Gain",0,"(20,40]"
"1:732",32,"second_win",755,0,"left",0.5,"3","first_time",0.375,"cd8","Episodic","Hospital",21,"F",0,0.52,70,240,6,2,0,"Gain",0,"(20,40]"
"1:733",33,"second_win",759,0,"left",0.5,"3","first_time",0.3875,"cd8","Episodic","Hospital",21,"F",0,0.52,70,240,6,2,0,"Gain",0,"(20,40]"
"1:734",34,"second_win",307,0,"left",0.5,"3","first_time",0.4,"cd8","Episodic","Hospital",21,"F",0,0.52,70,240,6,2,0,"Gain",0,"(20,40]"
"1:735",35,"second_win",627,1,"right",1,"4","first_time",0.425,"cd8","Episodic","Hospital",21,"F",0,0.52,70,240,6,2,0,"Gain",1,"(20,40]"
"1:736",36,"second_win",636,1,"right",1,"4","first_time",0.45,"cd8","Episodic","Hospital",21,"F",0,0.52,70,240,6,2,1,"Gain",1,"(20,40]"
"1:737",37,"second_win",369,1,"right",0,"4","first_time",0.45,"cd8","Episodic","Hospital",21,"F",0,0.52,70,240,6,2,1,"Gain",1,"(20,40]"
"1:738",38,"second_win",567,1,"right",0,"4","first_time",0.45,"cd8","Episodic","Hospital",21,"F",0,0.52,70,240,6,2,0,"Gain",1,"(20,40]"
"1:739",39,"second_win",117,1,"right",1,"4","first_time",0.475,"cd8","Episodic","Hospital",21,"F",0,0.52,70,240,6,2,0,"Gain",1,"(20,40]"
"1:740",40,"second_win",83,1,"right",0,"4","first_time",0.475,"cd8","Episodic","Hospital",21,"F",0,0.52,70,240,6,2,1,"Gain",1,"(20,40]"
"1:741",41,"second_win",35,1,"right",0,"4","first_time",0.475,"cd8","Episodic","Hospital",21,"F",0,0.52,70,240,6,3,0,"Gain",1,"(40,60]"
"1:742",42,"second_win",74,1,"right",0,"4","first_time",0.475,"cd8","Episodic","Hospital",21,"F",0,0.52,70,240,6,3,0,"Gain",1,"(40,60]"
"1:743",43,"second_win",468,1,"right",1,"4","first_time",0.5,"cd8","Episodic","Hospital",21,"F",0,0.52,70,240,6,3,0,"Gain",1,"(40,60]"
"1:744",44,"second_win",720,1,"right",0,"4","first_time",0.5,"cd8","Episodic","Hospital",21,"F",0,0.52,70,240,6,3,1,"Gain",1,"(40,60]"
"1:745",45,"second_win",350,0,"left",0.5,"3","first_time",0.5125,"cd8","Episodic","Hospital",21,"F",0,0.52,70,240,6,3,0,"Gain",0,"(40,60]"
"1:746",46,"second_win",470,0,"left",0.5,"3","first_time",0.525,"cd8","Episodic","Hospital",21,"F",0,0.52,70,240,6,3,0,"Gain",0,"(40,60]"
"1:747",47,"second_win",79,0,"left",0.5,"3","first_time",0.5375,"cd8","Episodic","Hospital",21,"F",0,0.52,70,240,6,3,0,"Gain",0,"(40,60]"
"1:748",48,"second_win",741,1,"right",0,"4","first_time",0.5375,"cd8","Episodic","Hospital",21,"F",0,0.52,70,240,6,3,0,"Gain",1,"(40,60]"
"1:749",49,"second_win",93,1,"right",1,"4","first_time",0.5625,"cd8","Episodic","Hospital",21,"F",0,0.52,70,240,6,3,0,"Gain",1,"(40,60]"
"1:750",50,"second_win",749,0,"left",0.5,"3","first_time",0.575,"cd8","Episodic","Hospital",21,"F",0,0.52,70,240,6,3,1,"Gain",0,"(40,60]"
"1:751",51,"second_win",78,1,"right",1,"4","first_time",0.6,"cd8","Episodic","Hospital",21,"F",0,0.52,70,240,6,3,1,"Gain",1,"(40,60]"
"1:752",52,"second_win",116,0,"left",0.5,"3","first_time",0.6125,"cd8","Episodic","Hospital",21,"F",0,0.52,70,240,6,3,1,"Gain",0,"(40,60]"
"1:753",53,"second_win",385,1,"right",0,"4","first_time",0.6125,"cd8","Episodic","Hospital",21,"F",0,0.52,70,240,6,3,1,"Gain",1,"(40,60]"
"1:754",54,"second_win",229,0,"left",0.5,"3","first_time",0.625,"cd8","Episodic","Hospital",21,"F",0,0.52,70,240,6,3,0,"Gain",0,"(40,60]"
"1:755",55,"second_win",215,1,"right",1,"4","first_time",0.65,"cd8","Episodic","Hospital",21,"F",0,0.52,70,240,6,3,0,"Gain",1,"(40,60]"
"1:756",56,"second_win",622,0,"left",0.5,"3","first_time",0.6625,"cd8","Episodic","Hospital",21,"F",0,0.52,70,240,6,3,1,"Gain",0,"(40,60]"
"1:757",57,"second_win",255,1,"right",1,"4","first_time",0.6875,"cd8","Episodic","Hospital",21,"F",0,0.52,70,240,6,3,1,"Gain",1,"(40,60]"
"1:758",58,"second_win",746,0,"left",0.5,"3","first_time",0.7,"cd8","Episodic","Hospital",21,"F",0,0.52,70,240,6,3,1,"Gain",0,"(40,60]"
"1:759",59,"second_win",119,1,"right",1,"4","first_time",0.725,"cd8","Episodic","Hospital",21,"F",0,0.52,70,240,6,3,1,"Gain",1,"(40,60]"
"1:760",60,"second_win",104,0,"left",0.5,"3","first_time",0.7375,"cd8","Episodic","Hospital",21,"F",0,0.52,70,240,6,3,1,"Gain",0,"(40,60]"
"1:761",61,"second_win",58,1,"right",1,"4","first_time",0.7625,"cd8","Episodic","Hospital",21,"F",0,0.52,70,240,6,4,1,"Gain",1,"(60,80]"
"1:762",62,"second_win",240,0,"left",0.5,"3","first_time",0.775,"cd8","Episodic","Hospital",21,"F",0,0.52,70,240,6,4,1,"Gain",0,"(60,80]"
"1:763",63,"second_win",745,1,"right",1,"4","first_time",0.8,"cd8","Episodic","Hospital",21,"F",0,0.52,70,240,6,4,1,"Gain",1,"(60,80]"
"1:764",64,"second_win",395,0,"left",0.5,"3","first_time",0.8125,"cd8","Episodic","Hospital",21,"F",0,0.52,70,240,6,4,1,"Gain",0,"(60,80]"
"1:765",65,"second_win",753,1,"right",1,"4","first_time",0.8375,"cd8","Episodic","Hospital",21,"F",0,0.52,70,240,6,4,1,"Gain",1,"(60,80]"
"1:766",66,"second_win",370,0,"left",0.5,"3","first_time",0.85,"cd8","Episodic","Hospital",21,"F",0,0.52,70,240,6,4,1,"Gain",0,"(60,80]"
"1:767",67,"second_win",117,1,"right",0,"4","first_time",0.85,"cd8","Episodic","Hospital",21,"F",0,0.52,70,240,6,4,1,"Gain",1,"(60,80]"
"1:768",68,"second_win",246,0,"left",0.5,"3","first_time",0.8625,"cd8","Episodic","Hospital",21,"F",0,0.52,70,240,6,4,0,"Gain",0,"(60,80]"
"1:769",69,"second_win",763,1,"right",0,"4","first_time",0.8625,"cd8","Episodic","Hospital",21,"F",0,0.52,70,240,6,4,0,"Gain",1,"(60,80]"
"1:770",70,"second_win",362,1,"right",0,"4","first_time",0.8625,"cd8","Episodic","Hospital",21,"F",0,0.52,70,240,6,4,0,"Gain",1,"(60,80]"
"1:771",71,"second_win",697,0,"left",0.5,"3","first_time",0.875,"cd8","Episodic","Hospital",21,"F",0,0.52,70,240,6,4,0,"Gain",0,"(60,80]"
"1:772",72,"second_win",761,0,"left",0.5,"3","first_time",0.8875,"cd8","Episodic","Hospital",21,"F",0,0.52,70,240,6,4,0,"Gain",0,"(60,80]"
"1:773",73,"second_win",627,0,"left",0.5,"3","first_time",0.9,"cd8","Episodic","Hospital",21,"F",0,0.52,70,240,6,4,0,"Gain",0,"(60,80]"
"1:774",74,"second_win",69,1,"right",1,"4","first_time",0.925,"cd8","Episodic","Hospital",21,"F",0,0.52,70,240,6,4,0,"Gain",1,"(60,80]"
"1:775",75,"second_win",738,0,"left",0.5,"3","first_time",0.9375,"cd8","Episodic","Hospital",21,"F",0,0.52,70,240,6,4,1,"Gain",0,"(60,80]"
"1:776",76,"second_win",724,1,"right",0,"4","first_time",0.9375,"cd8","Episodic","Hospital",21,"F",0,0.52,70,240,6,4,1,"Gain",1,"(60,80]"
"1:777",77,"second_win",360,0,"left",0.5,"3","first_time",0.95,"cd8","Episodic","Hospital",21,"F",0,0.52,70,240,6,4,0,"Gain",0,"(60,80]"
"1:778",78,"second_win",735,1,"right",1,"4","first_time",0.975,"cd8","Episodic","Hospital",21,"F",0,0.52,70,240,6,4,0,"Gain",1,"(60,80]"
"1:779",79,"second_win",357,0,"left",0.5,"3","first_time",0.9875,"cd8","Episodic","Hospital",21,"F",0,0.52,70,240,6,4,1,"Gain",0,"(60,80]"
"1:780",80,"second_win",630,1,"right",0,"4","first_time",0.9875,"cd8","Episodic","Hospital",21,"F",0,0.52,70,240,6,4,1,"Gain",1,"(60,80]"
"1:781",81,"second_win",94,1,"right",1,"4","first_time",1.0125,"cd8","Episodic","Hospital",21,"F",0,0.52,70,240,6,5,0,"Gain",1,"(80,100]"
"1:782",82,"second_win",236,0,"left",0.5,"3","first_time",1.025,"cd8","Episodic","Hospital",21,"F",0,0.52,70,240,6,5,1,"Gain",0,"(80,100]"
"1:783",83,"second_win",730,1,"right",1,"4","first_time",1.05,"cd8","Episodic","Hospital",21,"F",0,0.52,70,240,6,5,1,"Gain",1,"(80,100]"
"1:784",84,"second_win",758,0,"left",0.5,"3","first_time",1.0625,"cd8","Episodic","Hospital",21,"F",0,0.52,70,240,6,5,1,"Gain",0,"(80,100]"
"1:785",85,"second_win",728,1,"right",1,"4","first_time",1.0875,"cd8","Episodic","Hospital",21,"F",0,0.52,70,240,6,5,1,"Gain",1,"(80,100]"
"1:786",86,"second_win",718,0,"left",0.5,"3","first_time",1.1,"cd8","Episodic","Hospital",21,"F",0,0.52,70,240,6,5,1,"Gain",0,"(80,100]"
"1:787",87,"second_win",665,1,"right",0,"4","first_time",1.1,"cd8","Episodic","Hospital",21,"F",0,0.52,70,240,6,5,1,"Gain",1,"(80,100]"
"1:788",88,"second_win",626,1,"right",1,"4","first_time",1.125,"cd8","Episodic","Hospital",21,"F",0,0.52,70,240,6,5,0,"Gain",1,"(80,100]"
"1:789",89,"second_win",393,1,"right",0,"4","first_time",1.125,"cd8","Episodic","Hospital",21,"F",0,0.52,70,240,6,5,1,"Gain",1,"(80,100]"
"1:790",90,"second_win",104,1,"right",1,"4","first_time",1.15,"cd8","Episodic","Hospital",21,"F",0,0.52,70,240,6,5,0,"Gain",1,"(80,100]"
"1:791",91,"second_win",246,0,"left",0.5,"3","first_time",1.1625,"cd8","Episodic","Hospital",21,"F",0,0.52,70,240,6,5,1,"Gain",0,"(80,100]"
"1:792",92,"second_win",228,1,"right",1,"4","first_time",1.1875,"cd8","Episodic","Hospital",21,"F",0,0.52,70,240,6,5,1,"Gain",1,"(80,100]"
"1:793",93,"second_win",561,0,"left",0.5,"3","first_time",1.2,"cd8","Episodic","Hospital",21,"F",0,0.52,70,240,6,5,1,"Gain",0,"(80,100]"
"1:794",94,"second_win",72,1,"right",0,"4","first_time",1.2,"cd8","Episodic","Hospital",21,"F",0,0.52,70,240,6,5,1,"Gain",1,"(80,100]"
"1:795",95,"second_win",469,1,"right",0,"4","first_time",1.2,"cd8","Episodic","Hospital",21,"F",0,0.52,70,240,6,5,0,"Gain",1,"(80,100]"
"1:796",96,"second_win",46,0,"left",0.5,"3","first_time",1.2125,"cd8","Episodic","Hospital",21,"F",0,0.52,70,240,6,5,0,"Gain",0,"(80,100]"
"1:797",97,"second_win",280,0,"left",0.5,"3","first_time",1.225,"cd8","Episodic","Hospital",21,"F",0,0.52,70,240,6,5,0,"Gain",0,"(80,100]"
"1:798",98,"second_win",274,1,"right",0,"4","first_time",1.225,"cd8","Episodic","Hospital",21,"F",0,0.52,70,240,6,5,0,"Gain",1,"(80,100]"
"1:799",99,"second_win",465,1,"right",0,"4","first_time",1.225,"cd8","Episodic","Hospital",21,"F",0,0.52,70,240,6,5,0,"Gain",1,"(80,100]"
"1:800",100,"second_win",739,1,"right",0,"4","first_time",1.225,"cd8","Episodic","Hospital",21,"F",0,0.52,70,240,6,5,0,"Gain",1,"(80,100]"
"1:801",1,"first_win",774,1,"right",1,"1","first_time",0.025,"cd9","Control","Hospital",NA,"M",0,0.414141414141414,0,200,7,1,NA,"Gain",1,"(0,20]"
"1:802",2,"first_win",768,0,"left",0.5,"4","first_time",0.0375,"cd9","Control","Hospital",NA,"M",0,0.414141414141414,0,200,7,1,1,"Gain",0,"(0,20]"
"1:803",3,"first_win",780,0,"left",0.5,"4","first_time",0.05,"cd9","Control","Hospital",NA,"M",0,0.414141414141414,0,200,7,1,1,"Gain",0,"(0,20]"
"1:804",4,"first_win",2,NA,NA,-1,NA,"first_time",0.05,"cd9","Control","Hospital",NA,"M",0,0.414141414141414,0,200,7,1,1,"Gain",NA,"(0,20]"
"1:805",5,"first_win",748,0,"left",0.5,"4","first_time",0.0625,"cd9","Control","Hospital",NA,"M",0,0.414141414141414,0,200,7,1,1,"Gain",0,"(0,20]"
"1:806",6,"first_win",777,1,"right",0,"1","first_time",0.0625,"cd9","Control","Hospital",NA,"M",0,0.414141414141414,0,200,7,1,1,"Gain",1,"(0,20]"
"1:807",7,"first_win",763,0,"left",0.5,"4","first_time",0.075,"cd9","Control","Hospital",NA,"M",0,0.414141414141414,0,200,7,1,0,"Gain",0,"(0,20]"
"1:808",8,"first_win",411,0,"left",0.5,"4","first_time",0.0875,"cd9","Control","Hospital",NA,"M",0,0.414141414141414,0,200,7,1,0,"Gain",0,"(0,20]"
"1:809",9,"first_win",802,1,"right",1,"1","first_time",0.1125,"cd9","Control","Hospital",NA,"M",0,0.414141414141414,0,200,7,1,0,"Gain",1,"(0,20]"
"1:810",10,"first_win",772,1,"right",0,"1","first_time",0.1125,"cd9","Control","Hospital",NA,"M",0,0.414141414141414,0,200,7,1,1,"Gain",1,"(0,20]"
"1:811",11,"first_win",489,0,"left",0.5,"4","first_time",0.125,"cd9","Control","Hospital",NA,"M",0,0.414141414141414,0,200,7,1,0,"Gain",0,"(0,20]"
"1:812",12,"first_win",740,0,"left",0.5,"4","first_time",0.1375,"cd9","Control","Hospital",NA,"M",0,0.414141414141414,0,200,7,1,0,"Gain",0,"(0,20]"
"1:813",13,"first_win",795,1,"right",0,"1","first_time",0.1375,"cd9","Control","Hospital",NA,"M",0,0.414141414141414,0,200,7,1,0,"Gain",1,"(0,20]"
"1:814",14,"first_win",794,0,"left",0.5,"4","first_time",0.15,"cd9","Control","Hospital",NA,"M",0,0.414141414141414,0,200,7,1,0,"Gain",0,"(0,20]"
"1:815",15,"first_win",792,1,"right",0,"1","first_time",0.15,"cd9","Control","Hospital",NA,"M",0,0.414141414141414,0,200,7,1,0,"Gain",1,"(0,20]"
"1:816",16,"first_win",791,1,"right",1,"1","first_time",0.175,"cd9","Control","Hospital",NA,"M",0,0.414141414141414,0,200,7,1,0,"Gain",1,"(0,20]"
"1:817",17,"first_win",770,0,"left",0.5,"4","first_time",0.1875,"cd9","Control","Hospital",NA,"M",0,0.414141414141414,0,200,7,1,1,"Gain",0,"(0,20]"
"1:818",18,"first_win",801,0,"left",0.5,"4","first_time",0.2,"cd9","Control","Hospital",NA,"M",0,0.414141414141414,0,200,7,1,1,"Gain",0,"(0,20]"
"1:819",19,"first_win",790,0,"left",0.5,"4","first_time",0.2125,"cd9","Control","Hospital",NA,"M",0,0.414141414141414,0,200,7,1,1,"Gain",0,"(0,20]"
"1:820",20,"first_win",408,1,"right",1,"1","first_time",0.2375,"cd9","Control","Hospital",NA,"M",0,0.414141414141414,0,200,7,1,1,"Gain",1,"(0,20]"
"1:821",21,"first_win",773,0,"left",0.5,"4","first_time",0.25,"cd9","Control","Hospital",NA,"M",0,0.414141414141414,0,200,7,2,1,"Gain",0,"(20,40]"
"1:822",22,"first_win",135,0,"left",0.5,"4","first_time",0.2625,"cd9","Control","Hospital",NA,"M",0,0.414141414141414,0,200,7,2,1,"Gain",0,"(20,40]"
"1:823",23,"first_win",639,1,"right",0,"1","first_time",0.2625,"cd9","Control","Hospital",NA,"M",0,0.414141414141414,0,200,7,2,1,"Gain",1,"(20,40]"
"1:824",24,"first_win",160,1,"right",0,"1","first_time",0.2625,"cd9","Control","Hospital",NA,"M",0,0.414141414141414,0,200,7,2,0,"Gain",1,"(20,40]"
"1:825",25,"first_win",649,0,"left",0.5,"4","first_time",0.275,"cd9","Control","Hospital",NA,"M",0,0.414141414141414,0,200,7,2,0,"Gain",0,"(20,40]"
"1:826",26,"first_win",408,0,"left",0.5,"4","first_time",0.2875,"cd9","Control","Hospital",NA,"M",0,0.414141414141414,0,200,7,2,0,"Gain",0,"(20,40]"
"1:827",27,"first_win",767,0,"left",0.5,"4","first_time",0.3,"cd9","Control","Hospital",NA,"M",0,0.414141414141414,0,200,7,2,0,"Gain",0,"(20,40]"
"1:828",28,"first_win",485,1,"right",1,"1","first_time",0.325,"cd9","Control","Hospital",NA,"M",0,0.414141414141414,0,200,7,2,0,"Gain",1,"(20,40]"
"1:829",29,"first_win",484,0,"left",0.5,"4","first_time",0.3375,"cd9","Control","Hospital",NA,"M",0,0.414141414141414,0,200,7,2,1,"Gain",0,"(20,40]"
"1:830",30,"first_win",222,0,"left",0.5,"4","first_time",0.35,"cd9","Control","Hospital",NA,"M",0,0.414141414141414,0,200,7,2,1,"Gain",0,"(20,40]"
"1:831",31,"first_win",91,0,"left",0.5,"4","first_time",0.3625,"cd9","Control","Hospital",NA,"M",0,0.414141414141414,0,200,7,2,1,"Gain",0,"(20,40]"
"1:832",32,"first_win",90,1,"right",0,"1","first_time",0.3625,"cd9","Control","Hospital",NA,"M",0,0.414141414141414,0,200,7,2,1,"Gain",1,"(20,40]"
"1:833",33,"first_win",144,1,"right",0,"1","first_time",0.3625,"cd9","Control","Hospital",NA,"M",0,0.414141414141414,0,200,7,2,0,"Gain",1,"(20,40]"
"1:834",34,"first_win",238,1,"right",1,"1","first_time",0.3875,"cd9","Control","Hospital",NA,"M",0,0.414141414141414,0,200,7,2,0,"Gain",1,"(20,40]"
"1:835",35,"first_win",776,1,"right",1,"1","first_time",0.4125,"cd9","Control","Hospital",NA,"M",0,0.414141414141414,0,200,7,2,1,"Gain",1,"(20,40]"
"1:836",36,"first_win",287,1,"right",0,"1","first_time",0.4125,"cd9","Control","Hospital",NA,"M",0,0.414141414141414,0,200,7,2,1,"Gain",1,"(20,40]"
"1:837",37,"first_win",608,1,"right",0,"1","first_time",0.4125,"cd9","Control","Hospital",NA,"M",0,0.414141414141414,0,200,7,2,0,"Gain",1,"(20,40]"
"1:838",38,"first_win",236,1,"right",0,"1","first_time",0.4125,"cd9","Control","Hospital",NA,"M",0,0.414141414141414,0,200,7,2,0,"Gain",1,"(20,40]"
"1:839",39,"first_win",501,1,"right",0,"1","first_time",0.4125,"cd9","Control","Hospital",NA,"M",0,0.414141414141414,0,200,7,2,0,"Gain",1,"(20,40]"
"1:840",40,"first_win",386,1,"right",0,"1","first_time",0.4125,"cd9","Control","Hospital",NA,"M",0,0.414141414141414,0,200,7,2,0,"Gain",1,"(20,40]"
"1:841",41,"first_win",747,0,"left",0.5,"4","first_time",0.425,"cd9","Control","Hospital",NA,"M",0,0.414141414141414,0,200,7,3,0,"Gain",0,"(40,60]"
"1:842",42,"first_win",703,0,"left",0.5,"4","first_time",0.4375,"cd9","Control","Hospital",NA,"M",0,0.414141414141414,0,200,7,3,0,"Gain",0,"(40,60]"
"1:843",43,"first_win",769,1,"right",1,"1","first_time",0.4625,"cd9","Control","Hospital",NA,"M",0,0.414141414141414,0,200,7,3,0,"Gain",1,"(40,60]"
"1:844",44,"first_win",404,0,"left",0.5,"4","first_time",0.475,"cd9","Control","Hospital",NA,"M",0,0.414141414141414,0,200,7,3,1,"Gain",0,"(40,60]"
"1:845",45,"first_win",72,0,"left",0.5,"4","first_time",0.4875,"cd9","Control","Hospital",NA,"M",0,0.414141414141414,0,200,7,3,1,"Gain",0,"(40,60]"
"1:846",46,"first_win",800,0,"left",0.5,"4","first_time",0.5,"cd9","Control","Hospital",NA,"M",0,0.414141414141414,0,200,7,3,1,"Gain",0,"(40,60]"
"1:847",47,"first_win",259,1,"right",0,"1","first_time",0.5,"cd9","Control","Hospital",NA,"M",0,0.414141414141414,0,200,7,3,1,"Gain",1,"(40,60]"
"1:848",48,"first_win",240,0,"left",0.5,"4","first_time",0.5125,"cd9","Control","Hospital",NA,"M",0,0.414141414141414,0,200,7,3,0,"Gain",0,"(40,60]"
"1:849",49,"first_win",107,1,"right",1,"1","first_time",0.5375,"cd9","Control","Hospital",NA,"M",0,0.414141414141414,0,200,7,3,0,"Gain",1,"(40,60]"
"1:850",50,"first_win",205,0,"left",0.5,"4","first_time",0.55,"cd9","Control","Hospital",NA,"M",0,0.414141414141414,0,200,7,3,1,"Gain",0,"(40,60]"
"1:851",51,"first_win",100,0,"left",0.5,"4","first_time",0.5625,"cd9","Control","Hospital",NA,"M",0,0.414141414141414,0,200,7,3,1,"Gain",0,"(40,60]"
"1:852",52,"first_win",125,1,"right",0,"1","first_time",0.5625,"cd9","Control","Hospital",NA,"M",0,0.414141414141414,0,200,7,3,1,"Gain",1,"(40,60]"
"1:853",53,"first_win",40,0,"left",0.5,"4","first_time",0.575,"cd9","Control","Hospital",NA,"M",0,0.414141414141414,0,200,7,3,0,"Gain",0,"(40,60]"
"1:854",54,"first_win",796,1,"right",0,"1","first_time",0.575,"cd9","Control","Hospital",NA,"M",0,0.414141414141414,0,200,7,3,0,"Gain",1,"(40,60]"
"1:855",55,"first_win",118,1,"right",1,"1","first_time",0.6,"cd9","Control","Hospital",NA,"M",0,0.414141414141414,0,200,7,3,0,"Gain",1,"(40,60]"
"1:856",56,"first_win",128,0,"left",0.5,"4","first_time",0.6125,"cd9","Control","Hospital",NA,"M",0,0.414141414141414,0,200,7,3,1,"Gain",0,"(40,60]"
"1:857",57,"first_win",632,0,"left",0.5,"4","first_time",0.625,"cd9","Control","Hospital",NA,"M",0,0.414141414141414,0,200,7,3,1,"Gain",0,"(40,60]"
"1:858",58,"first_win",799,1,"right",1,"1","first_time",0.65,"cd9","Control","Hospital",NA,"M",0,0.414141414141414,0,200,7,3,1,"Gain",1,"(40,60]"
"1:859",59,"first_win",267,0,"left",0.5,"4","first_time",0.6625,"cd9","Control","Hospital",NA,"M",0,0.414141414141414,0,200,7,3,1,"Gain",0,"(40,60]"
"1:860",60,"first_win",253,0,"left",0.5,"4","first_time",0.675,"cd9","Control","Hospital",NA,"M",0,0.414141414141414,0,200,7,3,1,"Gain",0,"(40,60]"
"1:861",61,"first_win",781,1,"right",0,"1","first_time",0.675,"cd9","Control","Hospital",NA,"M",0,0.414141414141414,0,200,7,4,1,"Gain",1,"(60,80]"
"1:862",62,"first_win",278,1,"right",0,"1","first_time",0.675,"cd9","Control","Hospital",NA,"M",0,0.414141414141414,0,200,7,4,0,"Gain",1,"(60,80]"
"1:863",63,"first_win",380,0,"left",0.5,"4","first_time",0.6875,"cd9","Control","Hospital",NA,"M",0,0.414141414141414,0,200,7,4,0,"Gain",0,"(60,80]"
"1:864",64,"first_win",782,0,"left",0.5,"4","first_time",0.7,"cd9","Control","Hospital",NA,"M",0,0.414141414141414,0,200,7,4,0,"Gain",0,"(60,80]"
"1:865",65,"first_win",725,0,"left",0.5,"4","first_time",0.7125,"cd9","Control","Hospital",NA,"M",0,0.414141414141414,0,200,7,4,0,"Gain",0,"(60,80]"
"1:866",66,"first_win",698,0,"left",0.5,"4","first_time",0.725,"cd9","Control","Hospital",NA,"M",0,0.414141414141414,0,200,7,4,0,"Gain",0,"(60,80]"
"1:867",67,"first_win",649,1,"right",1,"1","first_time",0.75,"cd9","Control","Hospital",NA,"M",0,0.414141414141414,0,200,7,4,0,"Gain",1,"(60,80]"
"1:868",68,"first_win",8,1,"right",1,"1","first_time",0.775,"cd9","Control","Hospital",NA,"M",0,0.414141414141414,0,200,7,4,1,"Gain",1,"(60,80]"
"1:869",69,"first_win",242,0,"left",0.5,"4","first_time",0.7875,"cd9","Control","Hospital",NA,"M",0,0.414141414141414,0,200,7,4,1,"Gain",0,"(60,80]"
"1:870",70,"first_win",742,0,"left",0.5,"4","first_time",0.8,"cd9","Control","Hospital",NA,"M",0,0.414141414141414,0,200,7,4,1,"Gain",0,"(60,80]"
"1:871",71,"first_win",696,1,"right",0,"1","first_time",0.8,"cd9","Control","Hospital",NA,"M",0,0.414141414141414,0,200,7,4,1,"Gain",1,"(60,80]"
"1:872",72,"first_win",229,1,"right",1,"1","first_time",0.825,"cd9","Control","Hospital",NA,"M",0,0.414141414141414,0,200,7,4,0,"Gain",1,"(60,80]"
"1:873",73,"first_win",102,1,"right",0,"1","first_time",0.825,"cd9","Control","Hospital",NA,"M",0,0.414141414141414,0,200,7,4,1,"Gain",1,"(60,80]"
"1:874",74,"first_win",49,0,"left",0.5,"4","first_time",0.8375,"cd9","Control","Hospital",NA,"M",0,0.414141414141414,0,200,7,4,0,"Gain",0,"(60,80]"
"1:875",75,"first_win",798,0,"left",0.5,"4","first_time",0.85,"cd9","Control","Hospital",NA,"M",0,0.414141414141414,0,200,7,4,0,"Gain",0,"(60,80]"
"1:876",76,"first_win",228,1,"right",1,"1","first_time",0.875,"cd9","Control","Hospital",NA,"M",0,0.414141414141414,0,200,7,4,0,"Gain",1,"(60,80]"
"1:877",77,"first_win",237,0,"left",0.5,"4","first_time",0.8875,"cd9","Control","Hospital",NA,"M",0,0.414141414141414,0,200,7,4,1,"Gain",0,"(60,80]"
"1:878",78,"first_win",103,0,"left",0.5,"4","first_time",0.9,"cd9","Control","Hospital",NA,"M",0,0.414141414141414,0,200,7,4,1,"Gain",0,"(60,80]"
"1:879",79,"first_win",707,0,"left",0.5,"4","first_time",0.9125,"cd9","Control","Hospital",NA,"M",0,0.414141414141414,0,200,7,4,1,"Gain",0,"(60,80]"
"1:880",80,"first_win",352,1,"right",0,"1","first_time",0.9125,"cd9","Control","Hospital",NA,"M",0,0.414141414141414,0,200,7,4,1,"Gain",1,"(60,80]"
"1:881",81,"first_win",778,1,"right",1,"1","first_time",0.9375,"cd9","Control","Hospital",NA,"M",0,0.414141414141414,0,200,7,5,0,"Gain",1,"(80,100]"
"1:882",82,"first_win",128,0,"left",0.5,"4","first_time",0.95,"cd9","Control","Hospital",NA,"M",0,0.414141414141414,0,200,7,5,1,"Gain",0,"(80,100]"
"1:883",83,"first_win",87,0,"left",0.5,"4","first_time",0.9625,"cd9","Control","Hospital",NA,"M",0,0.414141414141414,0,200,7,5,1,"Gain",0,"(80,100]"
"1:884",84,"first_win",793,0,"left",0.5,"4","first_time",0.975,"cd9","Control","Hospital",NA,"M",0,0.414141414141414,0,200,7,5,1,"Gain",0,"(80,100]"
"1:885",85,"first_win",251,1,"right",1,"1","first_time",1,"cd9","Control","Hospital",NA,"M",0,0.414141414141414,0,200,7,5,1,"Gain",1,"(80,100]"
"1:886",86,"first_win",704,1,"right",1,"1","first_time",1.025,"cd9","Control","Hospital",NA,"M",0,0.414141414141414,0,200,7,5,1,"Gain",1,"(80,100]"
"1:887",87,"first_win",77,0,"left",0.5,"4","first_time",1.0375,"cd9","Control","Hospital",NA,"M",0,0.414141414141414,0,200,7,5,1,"Gain",0,"(80,100]"
