"","trial","outcome_condition","rt","chose_risky","key_pressed","reward","color","session","total_earned","participant","risk_first_to_mind","total_risk","judged_percent","block","last_risk","condition","experiment"
"1",1,"first_win","-1",NA,NA,-1,NA,"first_time",0,"ct01",0,0.161616161616162,0,1,NA,"Control","Control"
"2",2,"first_win","1368",TRUE,"left",1,"3","first_time",0.025,"ct01",0,0.161616161616162,0,1,NA,"Control","Control"
"3",3,"first_win","3768",FALSE,"right",0.5,"2","first_time",0.0375,"ct01",0,0.161616161616162,0,1,1,"Control","Control"
"4",4,"first_win","2264",FALSE,"right",0.5,"2","first_time",0.05,"ct01",0,0.161616161616162,0,1,1,"Control","Control"
"5",5,"first_win","2245",TRUE,"left",0,"3","first_time",0.05,"ct01",0,0.161616161616162,0,1,1,"Control","Control"
"6",6,"first_win","2758",FALSE,"right",0.5,"2","first_time",0.0625,"ct01",0,0.161616161616162,0,1,0,"Control","Control"
"7",7,"first_win","1866",FALSE,"right",0.5,"2","first_time",0.075,"ct01",0,0.161616161616162,0,1,0,"Control","Control"
"8",8,"first_win","1640",FALSE,"right",0.5,"2","first_time",0.0875,"ct01",0,0.161616161616162,0,1,0,"Control","Control"
"9",9,"first_win","1705",FALSE,"right",0.5,"2","first_time",0.1,"ct01",0,0.161616161616162,0,1,0,"Control","Control"
"10",10,"first_win","1358",FALSE,"right",0.5,"2","first_time",0.1125,"ct01",0,0.161616161616162,0,1,0,"Control","Control"
"11",11,"first_win","1293",FALSE,"right",0.5,"2","first_time",0.125,"ct01",0,0.161616161616162,0,1,0,"Control","Control"
"12",12,"first_win","1824",FALSE,"right",0.5,"2","first_time",0.1375,"ct01",0,0.161616161616162,0,1,0,"Control","Control"
"13",13,"first_win","1585",FALSE,"right",0.5,"2","first_time",0.15,"ct01",0,0.161616161616162,0,1,0,"Control","Control"
"14",14,"first_win","1395",FALSE,"right",0.5,"2","first_time",0.1625,"ct01",0,0.161616161616162,0,1,0,"Control","Control"
"15",15,"first_win","1349",FALSE,"right",0.5,"2","first_time",0.175,"ct01",0,0.161616161616162,0,1,0,"Control","Control"
"16",16,"first_win","1298",FALSE,"right",0.5,"2","first_time",0.1875,"ct01",0,0.161616161616162,0,1,0,"Control","Control"
"17",17,"first_win","1492",FALSE,"right",0.5,"2","first_time",0.2,"ct01",0,0.161616161616162,0,1,0,"Control","Control"
"18",18,"first_win","3042",FALSE,"right",0.5,"2","first_time",0.2125,"ct01",0,0.161616161616162,0,1,0,"Control","Control"
"19",19,"first_win","2262",FALSE,"right",0.5,"2","first_time",0.225,"ct01",0,0.161616161616162,0,1,0,"Control","Control"
"20",20,"first_win","1767",FALSE,"right",0.5,"2","first_time",0.2375,"ct01",0,0.161616161616162,0,1,0,"Control","Control"
"21",21,"first_win","939",FALSE,"right",0.5,"2","first_time",0.25,"ct01",0,0.161616161616162,0,2,0,"Control","Control"
"22",22,"first_win","830",FALSE,"right",0.5,"2","first_time",0.2625,"ct01",0,0.161616161616162,0,2,0,"Control","Control"
"23",23,"first_win","1107",FALSE,"right",0.5,"2","first_time",0.275,"ct01",0,0.161616161616162,0,2,0,"Control","Control"
"24",24,"first_win","1719",FALSE,"right",0.5,"2","first_time",0.2875,"ct01",0,0.161616161616162,0,2,0,"Control","Control"
"25",25,"first_win","609",TRUE,"left",1,"3","first_time",0.3125,"ct01",0,0.161616161616162,0,2,0,"Control","Control"
"26",26,"first_win","1082",TRUE,"left",0,"3","first_time",0.3125,"ct01",0,0.161616161616162,0,2,1,"Control","Control"
"27",27,"first_win","678",FALSE,"right",0.5,"2","first_time",0.325,"ct01",0,0.161616161616162,0,2,0,"Control","Control"
"28",28,"first_win","1143",FALSE,"right",0.5,"2","first_time",0.3375,"ct01",0,0.161616161616162,0,2,0,"Control","Control"
"29",29,"first_win","1723",FALSE,"right",0.5,"2","first_time",0.35,"ct01",0,0.161616161616162,0,2,0,"Control","Control"
"30",30,"first_win","1398",TRUE,"left",0,"3","first_time",0.35,"ct01",0,0.161616161616162,0,2,0,"Control","Control"
"31",31,"first_win","482",FALSE,"right",0.5,"2","first_time",0.3625,"ct01",0,0.161616161616162,0,2,0,"Control","Control"
"32",32,"first_win","699",FALSE,"right",0.5,"2","first_time",0.375,"ct01",0,0.161616161616162,0,2,0,"Control","Control"
"33",33,"first_win","847",FALSE,"right",0.5,"2","first_time",0.3875,"ct01",0,0.161616161616162,0,2,0,"Control","Control"
"34",34,"first_win","322",FALSE,"right",0.5,"2","first_time",0.4,"ct01",0,0.161616161616162,0,2,0,"Control","Control"
"35",35,"first_win","1251",FALSE,"right",0.5,"2","first_time",0.4125,"ct01",0,0.161616161616162,0,2,0,"Control","Control"
"36",36,"first_win","1066",FALSE,"right",0.5,"2","first_time",0.425,"ct01",0,0.161616161616162,0,2,0,"Control","Control"
"37",37,"first_win","805",TRUE,"left",1,"3","first_time",0.45,"ct01",0,0.161616161616162,0,2,0,"Control","Control"
"38",38,"first_win","1004",FALSE,"right",0.5,"2","first_time",0.4625,"ct01",0,0.161616161616162,0,2,1,"Control","Control"
"39",39,"first_win","640",FALSE,"right",0.5,"2","first_time",0.475,"ct01",0,0.161616161616162,0,2,1,"Control","Control"
"40",40,"first_win","1047",FALSE,"right",0.5,"2","first_time",0.4875,"ct01",0,0.161616161616162,0,2,1,"Control","Control"
"41",41,"first_win","489",FALSE,"right",0.5,"2","first_time",0.5,"ct01",0,0.161616161616162,0,3,1,"Control","Control"
"42",42,"first_win","656",FALSE,"right",0.5,"2","first_time",0.5125,"ct01",0,0.161616161616162,0,3,1,"Control","Control"
"43",43,"first_win","741",FALSE,"right",0.5,"2","first_time",0.525,"ct01",0,0.161616161616162,0,3,1,"Control","Control"
"44",44,"first_win","638",TRUE,"left",0,"3","first_time",0.525,"ct01",0,0.161616161616162,0,3,1,"Control","Control"
"45",45,"first_win","466",FALSE,"right",0.5,"2","first_time",0.5375,"ct01",0,0.161616161616162,0,3,0,"Control","Control"
"46",46,"first_win","531",FALSE,"right",0.5,"2","first_time",0.55,"ct01",0,0.161616161616162,0,3,0,"Control","Control"
"47",47,"first_win","440",FALSE,"right",0.5,"2","first_time",0.5625,"ct01",0,0.161616161616162,0,3,0,"Control","Control"
"48",48,"first_win","703",FALSE,"right",0.5,"2","first_time",0.575,"ct01",0,0.161616161616162,0,3,0,"Control","Control"
"49",49,"first_win","2250",FALSE,"right",0.5,"2","first_time",0.5875,"ct01",0,0.161616161616162,0,3,0,"Control","Control"
"50",50,"first_win","613",FALSE,"right",0.5,"2","first_time",0.6,"ct01",0,0.161616161616162,0,3,0,"Control","Control"
"51",51,"first_win","1224",FALSE,"right",0.5,"2","first_time",0.6125,"ct01",0,0.161616161616162,0,3,0,"Control","Control"
"52",52,"first_win","744",FALSE,"right",0.5,"2","first_time",0.625,"ct01",0,0.161616161616162,0,3,0,"Control","Control"
"53",53,"first_win","486",FALSE,"right",0.5,"2","first_time",0.6375,"ct01",0,0.161616161616162,0,3,0,"Control","Control"
"54",54,"first_win","368",FALSE,"right",0.5,"2","first_time",0.65,"ct01",0,0.161616161616162,0,3,0,"Control","Control"
"55",55,"first_win","461",FALSE,"right",0.5,"2","first_time",0.6625,"ct01",0,0.161616161616162,0,3,0,"Control","Control"
"56",56,"first_win","546",TRUE,"left",0,"3","first_time",0.6625,"ct01",0,0.161616161616162,0,3,0,"Control","Control"
"57",57,"first_win","486",FALSE,"right",0.5,"2","first_time",0.675,"ct01",0,0.161616161616162,0,3,0,"Control","Control"
"58",58,"first_win","506",TRUE,"left",1,"3","first_time",0.7,"ct01",0,0.161616161616162,0,3,0,"Control","Control"
"59",59,"first_win","608",FALSE,"right",0.5,"2","first_time",0.7125,"ct01",0,0.161616161616162,0,3,1,"Control","Control"
"60",60,"first_win","637",FALSE,"right",0.5,"2","first_time",0.725,"ct01",0,0.161616161616162,0,3,1,"Control","Control"
"61",61,"first_win","311",TRUE,"left",1,"3","first_time",0.75,"ct01",0,0.161616161616162,0,4,1,"Control","Control"
"62",62,"first_win","706",FALSE,"right",0.5,"2","first_time",0.7625,"ct01",0,0.161616161616162,0,4,1,"Control","Control"
"63",63,"first_win","962",TRUE,"left",0,"3","first_time",0.7625,"ct01",0,0.161616161616162,0,4,1,"Control","Control"
"64",64,"first_win","332",FALSE,"right",0.5,"2","first_time",0.775,"ct01",0,0.161616161616162,0,4,0,"Control","Control"
"65",65,"first_win","441",FALSE,"right",0.5,"2","first_time",0.7875,"ct01",0,0.161616161616162,0,4,0,"Control","Control"
"66",66,"first_win","448",TRUE,"left",0,"3","first_time",0.7875,"ct01",0,0.161616161616162,0,4,0,"Control","Control"
"67",67,"first_win","1402",FALSE,"right",0.5,"2","first_time",0.8,"ct01",0,0.161616161616162,0,4,0,"Control","Control"
"68",68,"first_win","535",FALSE,"right",0.5,"2","first_time",0.8125,"ct01",0,0.161616161616162,0,4,0,"Control","Control"
"69",69,"first_win","1598",FALSE,"right",0.5,"2","first_time",0.825,"ct01",0,0.161616161616162,0,4,0,"Control","Control"
"70",70,"first_win","412",FALSE,"right",0.5,"2","first_time",0.8375,"ct01",0,0.161616161616162,0,4,0,"Control","Control"
"71",71,"first_win","417",FALSE,"right",0.5,"2","first_time",0.85,"ct01",0,0.161616161616162,0,4,0,"Control","Control"
"72",72,"first_win","383",TRUE,"left",0,"3","first_time",0.85,"ct01",0,0.161616161616162,0,4,0,"Control","Control"
"73",73,"first_win","355",FALSE,"right",0.5,"2","first_time",0.8625,"ct01",0,0.161616161616162,0,4,0,"Control","Control"
"74",74,"first_win","329",FALSE,"right",0.5,"2","first_time",0.875,"ct01",0,0.161616161616162,0,4,0,"Control","Control"
"75",75,"first_win","392",FALSE,"right",0.5,"2","first_time",0.8875,"ct01",0,0.161616161616162,0,4,0,"Control","Control"
"76",76,"first_win","435",TRUE,"left",0,"3","first_time",0.8875,"ct01",0,0.161616161616162,0,4,0,"Control","Control"
"77",77,"first_win","311",FALSE,"right",0.5,"2","first_time",0.9,"ct01",0,0.161616161616162,0,4,0,"Control","Control"
"78",78,"first_win","2746",FALSE,"right",0.5,"2","first_time",0.9125,"ct01",0,0.161616161616162,0,4,0,"Control","Control"
"79",79,"first_win","641",FALSE,"right",0.5,"2","first_time",0.925,"ct01",0,0.161616161616162,0,4,0,"Control","Control"
"80",80,"first_win","475",FALSE,"right",0.5,"2","first_time",0.9375,"ct01",0,0.161616161616162,0,4,0,"Control","Control"
"81",81,"first_win","359",FALSE,"right",0.5,"2","first_time",0.95,"ct01",0,0.161616161616162,0,5,0,"Control","Control"
"82",82,"first_win","310",FALSE,"right",0.5,"2","first_time",0.9625,"ct01",0,0.161616161616162,0,5,0,"Control","Control"
"83",83,"first_win","340",FALSE,"right",0.5,"2","first_time",0.975,"ct01",0,0.161616161616162,0,5,0,"Control","Control"
"84",84,"first_win","423",FALSE,"right",0.5,"2","first_time",0.9875,"ct01",0,0.161616161616162,0,5,0,"Control","Control"
"85",85,"first_win","2708",TRUE,"left",1,"3","first_time",1.0125,"ct01",0,0.161616161616162,0,5,0,"Control","Control"
"86",86,"first_win","594",FALSE,"right",0.5,"2","first_time",1.025,"ct01",0,0.161616161616162,0,5,1,"Control","Control"
"87",87,"first_win","272",FALSE,"right",0.5,"2","first_time",1.0375,"ct01",0,0.161616161616162,0,5,1,"Control","Control"
"88",88,"first_win","274",FALSE,"right",0.5,"2","first_time",1.05,"ct01",0,0.161616161616162,0,5,1,"Control","Control"
"89",89,"first_win","613",FALSE,"right",0.5,"2","first_time",1.0625,"ct01",0,0.161616161616162,0,5,1,"Control","Control"
"90",90,"first_win","396",FALSE,"right",0.5,"2","first_time",1.075,"ct01",0,0.161616161616162,0,5,1,"Control","Control"
"91",91,"first_win","2640",FALSE,"right",0.5,"2","first_time",1.0875,"ct01",0,0.161616161616162,0,5,1,"Control","Control"
"92",92,"first_win","447",FALSE,"right",0.5,"2","first_time",1.1,"ct01",0,0.161616161616162,0,5,1,"Control","Control"
"93",93,"first_win","342",FALSE,"right",0.5,"2","first_time",1.1125,"ct01",0,0.161616161616162,0,5,1,"Control","Control"
"94",94,"first_win","325",FALSE,"right",0.5,"2","first_time",1.125,"ct01",0,0.161616161616162,0,5,1,"Control","Control"
"95",95,"first_win","322",FALSE,"right",0.5,"2","first_time",1.1375,"ct01",0,0.161616161616162,0,5,1,"Control","Control"
"96",96,"first_win","657",FALSE,"right",0.5,"2","first_time",1.15,"ct01",0,0.161616161616162,0,5,1,"Control","Control"
"97",97,"first_win","326",TRUE,"left",0,"3","first_time",1.15,"ct01",0,0.161616161616162,0,5,1,"Control","Control"
"98",98,"first_win","353",FALSE,"right",0.5,"2","first_time",1.1625,"ct01",0,0.161616161616162,0,5,0,"Control","Control"
"99",99,"first_win","379",FALSE,"right",0.5,"2","first_time",1.175,"ct01",0,0.161616161616162,0,5,0,"Control","Control"
"100",100,"first_win","137",FALSE,"right",0.5,"2","first_time",1.1875,"ct01",0,0.161616161616162,0,5,0,"Control","Control"
"111",1,"first_win","-1",NA,NA,-1,NA,"first_time",0,"ct02",0,0.272727272727273,25,1,NA,"Control","Control"
"112",2,"first_win","762",TRUE,"left",1,"2","first_time",0.025,"ct02",0,0.272727272727273,25,1,NA,"Control","Control"
"113",3,"first_win","640",FALSE,"right",0.5,"3","first_time",0.0375,"ct02",0,0.272727272727273,25,1,1,"Control","Control"
"114",4,"first_win","812",TRUE,"left",0,"2","first_time",0.0375,"ct02",0,0.272727272727273,25,1,1,"Control","Control"
"115",5,"first_win","456",TRUE,"left",1,"2","first_time",0.0625,"ct02",0,0.272727272727273,25,1,0,"Control","Control"
"116",6,"first_win","376",TRUE,"left",0,"2","first_time",0.0625,"ct02",0,0.272727272727273,25,1,1,"Control","Control"
"117",7,"first_win","426",TRUE,"left",1,"2","first_time",0.0875,"ct02",0,0.272727272727273,25,1,0,"Control","Control"
"118",8,"first_win","368",TRUE,"left",0,"2","first_time",0.0875,"ct02",0,0.272727272727273,25,1,1,"Control","Control"
"119",9,"first_win","572",FALSE,"right",0.5,"3","first_time",0.1,"ct02",0,0.272727272727273,25,1,0,"Control","Control"
"120",10,"first_win","480",FALSE,"right",0.5,"3","first_time",0.1125,"ct02",0,0.272727272727273,25,1,0,"Control","Control"
"121",11,"first_win","215",TRUE,"left",0,"2","first_time",0.1125,"ct02",0,0.272727272727273,25,1,0,"Control","Control"
"122",12,"first_win","199",FALSE,"right",0.5,"3","first_time",0.125,"ct02",0,0.272727272727273,25,1,0,"Control","Control"
"123",13,"first_win","442",FALSE,"right",0.5,"3","first_time",0.1375,"ct02",0,0.272727272727273,25,1,0,"Control","Control"
"124",14,"first_win","272",FALSE,"right",0.5,"3","first_time",0.15,"ct02",0,0.272727272727273,25,1,0,"Control","Control"
"125",15,"first_win","456",TRUE,"left",0,"2","first_time",0.15,"ct02",0,0.272727272727273,25,1,0,"Control","Control"
"126",16,"first_win","191",TRUE,"left",0,"2","first_time",0.15,"ct02",0,0.272727272727273,25,1,0,"Control","Control"
"127",17,"first_win","226",TRUE,"left",1,"2","first_time",0.175,"ct02",0,0.272727272727273,25,1,0,"Control","Control"
"128",18,"first_win","447",FALSE,"right",0.5,"3","first_time",0.1875,"ct02",0,0.272727272727273,25,1,1,"Control","Control"
"129",19,"first_win","190",FALSE,"right",0.5,"3","first_time",0.2,"ct02",0,0.272727272727273,25,1,1,"Control","Control"
"130",20,"first_win","202",FALSE,"right",0.5,"3","first_time",0.2125,"ct02",0,0.272727272727273,25,1,1,"Control","Control"
"131",21,"first_win","229",FALSE,"right",0.5,"3","first_time",0.225,"ct02",0,0.272727272727273,25,2,1,"Control","Control"
"132",22,"first_win","237",FALSE,"right",0.5,"3","first_time",0.2375,"ct02",0,0.272727272727273,25,2,1,"Control","Control"
"133",23,"first_win","276",FALSE,"right",0.5,"3","first_time",0.25,"ct02",0,0.272727272727273,25,2,1,"Control","Control"
"134",24,"first_win","535",FALSE,"right",0.5,"3","first_time",0.2625,"ct02",0,0.272727272727273,25,2,1,"Control","Control"
"135",25,"first_win","332",FALSE,"right",0.5,"3","first_time",0.275,"ct02",0,0.272727272727273,25,2,1,"Control","Control"
"136",26,"first_win","315",FALSE,"right",0.5,"3","first_time",0.2875,"ct02",0,0.272727272727273,25,2,1,"Control","Control"
"137",27,"first_win","287",FALSE,"right",0.5,"3","first_time",0.3,"ct02",0,0.272727272727273,25,2,1,"Control","Control"
"138",28,"first_win","182",FALSE,"right",0.5,"3","first_time",0.3125,"ct02",0,0.272727272727273,25,2,1,"Control","Control"
"139",29,"first_win","316",FALSE,"right",0.5,"3","first_time",0.325,"ct02",0,0.272727272727273,25,2,1,"Control","Control"
"140",30,"first_win","391",FALSE,"right",0.5,"3","first_time",0.3375,"ct02",0,0.272727272727273,25,2,1,"Control","Control"
"141",31,"first_win","305",FALSE,"right",0.5,"3","first_time",0.35,"ct02",0,0.272727272727273,25,2,1,"Control","Control"
"142",32,"first_win","276",FALSE,"right",0.5,"3","first_time",0.3625,"ct02",0,0.272727272727273,25,2,1,"Control","Control"
"143",33,"first_win","295",FALSE,"right",0.5,"3","first_time",0.375,"ct02",0,0.272727272727273,25,2,1,"Control","Control"
"144",34,"first_win","331",FALSE,"right",0.5,"3","first_time",0.3875,"ct02",0,0.272727272727273,25,2,1,"Control","Control"
"145",35,"first_win","492",FALSE,"right",0.5,"3","first_time",0.4,"ct02",0,0.272727272727273,25,2,1,"Control","Control"
"146",36,"first_win","412",FALSE,"right",0.5,"3","first_time",0.4125,"ct02",0,0.272727272727273,25,2,1,"Control","Control"
"147",37,"first_win","346",FALSE,"right",0.5,"3","first_time",0.425,"ct02",0,0.272727272727273,25,2,1,"Control","Control"
"148",38,"first_win","312",FALSE,"right",0.5,"3","first_time",0.4375,"ct02",0,0.272727272727273,25,2,1,"Control","Control"
"149",39,"first_win","335",FALSE,"right",0.5,"3","first_time",0.45,"ct02",0,0.272727272727273,25,2,1,"Control","Control"
"150",40,"first_win","202",FALSE,"right",0.5,"3","first_time",0.4625,"ct02",0,0.272727272727273,25,2,1,"Control","Control"
"151",41,"first_win","263",FALSE,"right",0.5,"3","first_time",0.475,"ct02",0,0.272727272727273,25,3,1,"Control","Control"
"152",42,"first_win","342",FALSE,"right",0.5,"3","first_time",0.4875,"ct02",0,0.272727272727273,25,3,1,"Control","Control"
"153",43,"first_win","324",FALSE,"right",0.5,"3","first_time",0.5,"ct02",0,0.272727272727273,25,3,1,"Control","Control"
"154",44,"first_win","318",FALSE,"right",0.5,"3","first_time",0.5125,"ct02",0,0.272727272727273,25,3,1,"Control","Control"
"155",45,"first_win","427",FALSE,"right",0.5,"3","first_time",0.525,"ct02",0,0.272727272727273,25,3,1,"Control","Control"
"156",46,"first_win","329",FALSE,"right",0.5,"3","first_time",0.5375,"ct02",0,0.272727272727273,25,3,1,"Control","Control"
"157",47,"first_win","375",FALSE,"right",0.5,"3","first_time",0.55,"ct02",0,0.272727272727273,25,3,1,"Control","Control"
"158",48,"first_win","245",FALSE,"right",0.5,"3","first_time",0.5625,"ct02",0,0.272727272727273,25,3,1,"Control","Control"
"159",49,"first_win","437",FALSE,"right",0.5,"3","first_time",0.575,"ct02",0,0.272727272727273,25,3,1,"Control","Control"
"160",50,"first_win","384",FALSE,"right",0.5,"3","first_time",0.5875,"ct02",0,0.272727272727273,25,3,1,"Control","Control"
"161",51,"first_win","223",FALSE,"right",0.5,"3","first_time",0.6,"ct02",0,0.272727272727273,25,3,1,"Control","Control"
"162",52,"first_win","284",FALSE,"right",0.5,"3","first_time",0.6125,"ct02",0,0.272727272727273,25,3,1,"Control","Control"
"163",53,"first_win","368",FALSE,"right",0.5,"3","first_time",0.625,"ct02",0,0.272727272727273,25,3,1,"Control","Control"
"164",54,"first_win","310",FALSE,"right",0.5,"3","first_time",0.6375,"ct02",0,0.272727272727273,25,3,1,"Control","Control"
"165",55,"first_win","602",FALSE,"right",0.5,"3","first_time",0.65,"ct02",0,0.272727272727273,25,3,1,"Control","Control"
"166",56,"first_win","438",FALSE,"right",0.5,"3","first_time",0.6625,"ct02",0,0.272727272727273,25,3,1,"Control","Control"
"167",57,"first_win","334",FALSE,"right",0.5,"3","first_time",0.675,"ct02",0,0.272727272727273,25,3,1,"Control","Control"
"168",58,"first_win","382",FALSE,"right",0.5,"3","first_time",0.6875,"ct02",0,0.272727272727273,25,3,1,"Control","Control"
"169",59,"first_win","287",FALSE,"right",0.5,"3","first_time",0.7,"ct02",0,0.272727272727273,25,3,1,"Control","Control"
"170",60,"first_win","465",FALSE,"right",0.5,"3","first_time",0.7125,"ct02",0,0.272727272727273,25,3,1,"Control","Control"
"171",61,"first_win","413",FALSE,"right",0.5,"3","first_time",0.725,"ct02",0,0.272727272727273,25,4,1,"Control","Control"
"172",62,"first_win","307",FALSE,"right",0.5,"3","first_time",0.7375,"ct02",0,0.272727272727273,25,4,1,"Control","Control"
"173",63,"first_win","322",TRUE,"left",0,"2","first_time",0.7375,"ct02",0,0.272727272727273,25,4,1,"Control","Control"
"174",64,"first_win","437",TRUE,"left",0,"2","first_time",0.7375,"ct02",0,0.272727272727273,25,4,0,"Control","Control"
"175",65,"first_win","265",TRUE,"left",1,"2","first_time",0.7625,"ct02",0,0.272727272727273,25,4,0,"Control","Control"
"176",66,"first_win","991",TRUE,"left",1,"2","first_time",0.7875,"ct02",0,0.272727272727273,25,4,1,"Control","Control"
"177",67,"first_win","741",TRUE,"left",0,"2","first_time",0.7875,"ct02",0,0.272727272727273,25,4,1,"Control","Control"
"178",68,"first_win","366",TRUE,"left",0,"2","first_time",0.7875,"ct02",0,0.272727272727273,25,4,0,"Control","Control"
"179",69,"first_win","179",TRUE,"left",0,"2","first_time",0.7875,"ct02",0,0.272727272727273,25,4,0,"Control","Control"
"180",70,"first_win","256",TRUE,"left",1,"2","first_time",0.8125,"ct02",0,0.272727272727273,25,4,0,"Control","Control"
"181",71,"first_win","1383",FALSE,"right",0.5,"3","first_time",0.825,"ct02",0,0.272727272727273,25,4,1,"Control","Control"
"182",72,"first_win","264",TRUE,"left",0,"2","first_time",0.825,"ct02",0,0.272727272727273,25,4,1,"Control","Control"
"183",73,"first_win","230",FALSE,"right",0.5,"3","first_time",0.8375,"ct02",0,0.272727272727273,25,4,0,"Control","Control"
"184",74,"first_win","233",TRUE,"left",1,"2","first_time",0.8625,"ct02",0,0.272727272727273,25,4,0,"Control","Control"
"185",75,"first_win","263",FALSE,"right",0.5,"3","first_time",0.875,"ct02",0,0.272727272727273,25,4,1,"Control","Control"
"186",76,"first_win","262",FALSE,"right",0.5,"3","first_time",0.8875,"ct02",0,0.272727272727273,25,4,1,"Control","Control"
"187",77,"first_win","332",FALSE,"right",0.5,"3","first_time",0.9,"ct02",0,0.272727272727273,25,4,1,"Control","Control"
"188",78,"first_win","473",FALSE,"right",0.5,"3","first_time",0.9125,"ct02",0,0.272727272727273,25,4,1,"Control","Control"
"189",79,"first_win","181",TRUE,"left",1,"2","first_time",0.9375,"ct02",0,0.272727272727273,25,4,1,"Control","Control"
"190",80,"first_win","201",FALSE,"right",0.5,"3","first_time",0.95,"ct02",0,0.272727272727273,25,4,1,"Control","Control"
"191",81,"first_win","346",FALSE,"right",0.5,"3","first_time",0.9625,"ct02",0,0.272727272727273,25,5,1,"Control","Control"
"192",82,"first_win","633",FALSE,"right",0.5,"3","first_time",0.975,"ct02",0,0.272727272727273,25,5,1,"Control","Control"
"193",83,"first_win","229",TRUE,"left",1,"2","first_time",1,"ct02",0,0.272727272727273,25,5,1,"Control","Control"
"194",84,"first_win","282",FALSE,"right",0.5,"3","first_time",1.0125,"ct02",0,0.272727272727273,25,5,1,"Control","Control"
"195",85,"first_win","179",FALSE,"right",0.5,"3","first_time",1.025,"ct02",0,0.272727272727273,25,5,1,"Control","Control"
"196",86,"first_win","335",FALSE,"right",0.5,"3","first_time",1.0375,"ct02",0,0.272727272727273,25,5,1,"Control","Control"
"197",87,"first_win","349",FALSE,"right",0.5,"3","first_time",1.05,"ct02",0,0.272727272727273,25,5,1,"Control","Control"
"198",88,"first_win","232",TRUE,"left",0,"2","first_time",1.05,"ct02",0,0.272727272727273,25,5,1,"Control","Control"
"199",89,"first_win","1301",FALSE,"right",0.5,"3","first_time",1.0625,"ct02",0,0.272727272727273,25,5,0,"Control","Control"
"200",90,"first_win","332",TRUE,"left",1,"2","first_time",1.0875,"ct02",0,0.272727272727273,25,5,0,"Control","Control"
"201",91,"first_win","201",FALSE,"right",0.5,"3","first_time",1.1,"ct02",0,0.272727272727273,25,5,1,"Control","Control"
"202",92,"first_win","253",FALSE,"right",0.5,"3","first_time",1.1125,"ct02",0,0.272727272727273,25,5,1,"Control","Control"
"203",93,"first_win","364",FALSE,"right",0.5,"3","first_time",1.125,"ct02",0,0.272727272727273,25,5,1,"Control","Control"
"204",94,"first_win","162",TRUE,"left",0,"2","first_time",1.125,"ct02",0,0.272727272727273,25,5,1,"Control","Control"
"205",95,"first_win","2027",TRUE,"left",1,"2","first_time",1.15,"ct02",0,0.272727272727273,25,5,0,"Control","Control"
"206",96,"first_win","348",FALSE,"right",0.5,"3","first_time",1.1625,"ct02",0,0.272727272727273,25,5,1,"Control","Control"
"207",97,"first_win","434",FALSE,"right",0.5,"3","first_time",1.175,"ct02",0,0.272727272727273,25,5,1,"Control","Control"
"208",98,"first_win","332",TRUE,"left",1,"2","first_time",1.2,"ct02",0,0.272727272727273,25,5,1,"Control","Control"
"209",99,"first_win","193",FALSE,"right",0.5,"3","first_time",1.2125,"ct02",0,0.272727272727273,25,5,1,"Control","Control"
"210",100,"first_win","189",FALSE,"right",0.5,"3","first_time",1.225,"ct02",0,0.272727272727273,25,5,1,"Control","Control"
"221",1,"second_win","-1",NA,NA,-1,NA,"first_time",0,"ct03",0,0.161616161616162,0,1,NA,"Control","Control"
"222",2,"second_win","101",TRUE,"right",0,"2","first_time",0,"ct03",0,0.161616161616162,0,1,NA,"Control","Control"
"223",3,"second_win","3765",FALSE,"left",0.5,"3","first_time",0.0125,"ct03",0,0.161616161616162,0,1,0,"Control","Control"
"224",4,"second_win","3106",FALSE,"left",0.5,"3","first_time",0.025,"ct03",0,0.161616161616162,0,1,0,"Control","Control"
"225",5,"second_win","2242",FALSE,"left",0.5,"3","first_time",0.0375,"ct03",0,0.161616161616162,0,1,0,"Control","Control"
"226",6,"second_win","1973",FALSE,"left",0.5,"3","first_time",0.05,"ct03",0,0.161616161616162,0,1,0,"Control","Control"
"227",7,"second_win","1142",FALSE,"left",0.5,"3","first_time",0.0625,"ct03",0,0.161616161616162,0,1,0,"Control","Control"
"228",8,"second_win","2156",FALSE,"left",0.5,"3","first_time",0.075,"ct03",0,0.161616161616162,0,1,0,"Control","Control"
"229",9,"second_win","1968",FALSE,"left",0.5,"3","first_time",0.0875,"ct03",0,0.161616161616162,0,1,0,"Control","Control"
"230",10,"second_win","1509",TRUE,"right",1,"2","first_time",0.1125,"ct03",0,0.161616161616162,0,1,0,"Control","Control"
"231",11,"second_win","2195",TRUE,"right",0,"2","first_time",0.1125,"ct03",0,0.161616161616162,0,1,1,"Control","Control"
"232",12,"second_win","1647",TRUE,"right",1,"2","first_time",0.1375,"ct03",0,0.161616161616162,0,1,0,"Control","Control"
"233",13,"second_win","1493",FALSE,"left",0.5,"3","first_time",0.15,"ct03",0,0.161616161616162,0,1,1,"Control","Control"
"234",14,"second_win","1121",TRUE,"right",0,"2","first_time",0.15,"ct03",0,0.161616161616162,0,1,1,"Control","Control"
"235",15,"second_win","959",FALSE,"left",0.5,"3","first_time",0.1625,"ct03",0,0.161616161616162,0,1,0,"Control","Control"
"236",16,"second_win","778",TRUE,"right",0,"2","first_time",0.1625,"ct03",0,0.161616161616162,0,1,0,"Control","Control"
"237",17,"second_win","1025",FALSE,"left",0.5,"3","first_time",0.175,"ct03",0,0.161616161616162,0,1,0,"Control","Control"
"238",18,"second_win","1592",TRUE,"right",1,"2","first_time",0.2,"ct03",0,0.161616161616162,0,1,0,"Control","Control"
"239",19,"second_win","1828",FALSE,"left",0.5,"3","first_time",0.2125,"ct03",0,0.161616161616162,0,1,1,"Control","Control"
"240",20,"second_win","2198",FALSE,"left",0.5,"3","first_time",0.225,"ct03",0,0.161616161616162,0,1,1,"Control","Control"
"241",21,"second_win","1061",FALSE,"left",0.5,"3","first_time",0.2375,"ct03",0,0.161616161616162,0,2,1,"Control","Control"
"242",22,"second_win","1218",TRUE,"right",0,"2","first_time",0.2375,"ct03",0,0.161616161616162,0,2,1,"Control","Control"
"243",23,"second_win","926",FALSE,"left",0.5,"3","first_time",0.25,"ct03",0,0.161616161616162,0,2,0,"Control","Control"
"244",24,"second_win","556",FALSE,"left",0.5,"3","first_time",0.2625,"ct03",0,0.161616161616162,0,2,0,"Control","Control"
"245",25,"second_win","507",FALSE,"left",0.5,"3","first_time",0.275,"ct03",0,0.161616161616162,0,2,0,"Control","Control"
"246",26,"second_win","89",FALSE,"left",0.5,"3","first_time",0.2875,"ct03",0,0.161616161616162,0,2,0,"Control","Control"
"247",27,"second_win","621",FALSE,"left",0.5,"3","first_time",0.3,"ct03",0,0.161616161616162,0,2,0,"Control","Control"
"248",28,"second_win","722",FALSE,"left",0.5,"3","first_time",0.3125,"ct03",0,0.161616161616162,0,2,0,"Control","Control"
"249",29,"second_win","508",FALSE,"left",0.5,"3","first_time",0.325,"ct03",0,0.161616161616162,0,2,0,"Control","Control"
"250",30,"second_win","622",TRUE,"right",1,"2","first_time",0.35,"ct03",0,0.161616161616162,0,2,0,"Control","Control"
"251",31,"second_win","642",FALSE,"left",0.5,"3","first_time",0.3625,"ct03",0,0.161616161616162,0,2,1,"Control","Control"
"252",32,"second_win","585",FALSE,"left",0.5,"3","first_time",0.375,"ct03",0,0.161616161616162,0,2,1,"Control","Control"
"253",33,"second_win","511",FALSE,"left",0.5,"3","first_time",0.3875,"ct03",0,0.161616161616162,0,2,1,"Control","Control"
"254",34,"second_win","481",FALSE,"left",0.5,"3","first_time",0.4,"ct03",0,0.161616161616162,0,2,1,"Control","Control"
"255",35,"second_win","636",TRUE,"right",0,"2","first_time",0.4,"ct03",0,0.161616161616162,0,2,1,"Control","Control"
"256",36,"second_win","0",FALSE,"left",0.5,"3","first_time",0.4125,"ct03",0,0.161616161616162,0,2,0,"Control","Control"
"257",37,"second_win","468",FALSE,"left",0.5,"3","first_time",0.425,"ct03",0,0.161616161616162,0,2,0,"Control","Control"
"258",38,"second_win","0",FALSE,"left",0.5,"3","first_time",0.4375,"ct03",0,0.161616161616162,0,2,0,"Control","Control"
"259",39,"second_win","1153",FALSE,"left",0.5,"3","first_time",0.45,"ct03",0,0.161616161616162,0,2,0,"Control","Control"
"260",40,"second_win","488",FALSE,"left",0.5,"3","first_time",0.4625,"ct03",0,0.161616161616162,0,2,0,"Control","Control"
"261",41,"second_win","524",FALSE,"left",0.5,"3","first_time",0.475,"ct03",0,0.161616161616162,0,3,0,"Control","Control"
"262",42,"second_win","471",FALSE,"left",0.5,"3","first_time",0.4875,"ct03",0,0.161616161616162,0,3,0,"Control","Control"
"263",43,"second_win","486",FALSE,"left",0.5,"3","first_time",0.5,"ct03",0,0.161616161616162,0,3,0,"Control","Control"
"264",44,"second_win","670",TRUE,"right",1,"2","first_time",0.525,"ct03",0,0.161616161616162,0,3,0,"Control","Control"
"265",45,"second_win","669",FALSE,"left",0.5,"3","first_time",0.5375,"ct03",0,0.161616161616162,0,3,1,"Control","Control"
"266",46,"second_win","508",FALSE,"left",0.5,"3","first_time",0.55,"ct03",0,0.161616161616162,0,3,1,"Control","Control"
"267",47,"second_win","503",FALSE,"left",0.5,"3","first_time",0.5625,"ct03",0,0.161616161616162,0,3,1,"Control","Control"
"268",48,"second_win","514",FALSE,"left",0.5,"3","first_time",0.575,"ct03",0,0.161616161616162,0,3,1,"Control","Control"
"269",49,"second_win","525",FALSE,"left",0.5,"3","first_time",0.5875,"ct03",0,0.161616161616162,0,3,1,"Control","Control"
"270",50,"second_win","563",FALSE,"left",0.5,"3","first_time",0.6,"ct03",0,0.161616161616162,0,3,1,"Control","Control"
"271",51,"second_win","480",FALSE,"left",0.5,"3","first_time",0.6125,"ct03",0,0.161616161616162,0,3,1,"Control","Control"
"272",52,"second_win","487",FALSE,"left",0.5,"3","first_time",0.625,"ct03",0,0.161616161616162,0,3,1,"Control","Control"
"273",53,"second_win","481",FALSE,"left",0.5,"3","first_time",0.6375,"ct03",0,0.161616161616162,0,3,1,"Control","Control"
"274",54,"second_win","455",FALSE,"left",0.5,"3","first_time",0.65,"ct03",0,0.161616161616162,0,3,1,"Control","Control"
"275",55,"second_win","742",TRUE,"right",1,"2","first_time",0.675,"ct03",0,0.161616161616162,0,3,1,"Control","Control"
"276",56,"second_win","721",FALSE,"left",0.5,"3","first_time",0.6875,"ct03",0,0.161616161616162,0,3,1,"Control","Control"
"277",57,"second_win","559",FALSE,"left",0.5,"3","first_time",0.7,"ct03",0,0.161616161616162,0,3,1,"Control","Control"
"278",58,"second_win","476",FALSE,"left",0.5,"3","first_time",0.7125,"ct03",0,0.161616161616162,0,3,1,"Control","Control"
"279",59,"second_win","544",FALSE,"left",0.5,"3","first_time",0.725,"ct03",0,0.161616161616162,0,3,1,"Control","Control"
"280",60,"second_win","460",FALSE,"left",0.5,"3","first_time",0.7375,"ct03",0,0.161616161616162,0,3,1,"Control","Control"
"281",61,"second_win","505",FALSE,"left",0.5,"3","first_time",0.75,"ct03",0,0.161616161616162,0,4,1,"Control","Control"
"282",62,"second_win","456",FALSE,"left",0.5,"3","first_time",0.7625,"ct03",0,0.161616161616162,0,4,1,"Control","Control"
"283",63,"second_win","471",FALSE,"left",0.5,"3","first_time",0.775,"ct03",0,0.161616161616162,0,4,1,"Control","Control"
"284",64,"second_win","554",FALSE,"left",0.5,"3","first_time",0.7875,"ct03",0,0.161616161616162,0,4,1,"Control","Control"
"285",65,"second_win","576",FALSE,"left",0.5,"3","first_time",0.8,"ct03",0,0.161616161616162,0,4,1,"Control","Control"
"286",66,"second_win","558",FALSE,"left",0.5,"3","first_time",0.8125,"ct03",0,0.161616161616162,0,4,1,"Control","Control"
"287",67,"second_win","669",TRUE,"right",1,"2","first_time",0.8375,"ct03",0,0.161616161616162,0,4,1,"Control","Control"
"288",68,"second_win","487",FALSE,"left",0.5,"3","first_time",0.85,"ct03",0,0.161616161616162,0,4,1,"Control","Control"
"289",69,"second_win","629",FALSE,"left",0.5,"3","first_time",0.8625,"ct03",0,0.161616161616162,0,4,1,"Control","Control"
"290",70,"second_win","411",FALSE,"left",0.5,"3","first_time",0.875,"ct03",0,0.161616161616162,0,4,1,"Control","Control"
"291",71,"second_win","511",FALSE,"left",0.5,"3","first_time",0.8875,"ct03",0,0.161616161616162,0,4,1,"Control","Control"
"292",72,"second_win","508",FALSE,"left",0.5,"3","first_time",0.9,"ct03",0,0.161616161616162,0,4,1,"Control","Control"
"293",73,"second_win","474",TRUE,"right",1,"2","first_time",0.925,"ct03",0,0.161616161616162,0,4,1,"Control","Control"
"294",74,"second_win","464",FALSE,"left",0.5,"3","first_time",0.9375,"ct03",0,0.161616161616162,0,4,1,"Control","Control"
"295",75,"second_win","446",FALSE,"left",0.5,"3","first_time",0.95,"ct03",0,0.161616161616162,0,4,1,"Control","Control"
"296",76,"second_win","510",FALSE,"left",0.5,"3","first_time",0.9625,"ct03",0,0.161616161616162,0,4,1,"Control","Control"
"297",77,"second_win","456",FALSE,"left",0.5,"3","first_time",0.975,"ct03",0,0.161616161616162,0,4,1,"Control","Control"
"298",78,"second_win","500",FALSE,"left",0.5,"3","first_time",0.9875,"ct03",0,0.161616161616162,0,4,1,"Control","Control"
"299",79,"second_win","568",TRUE,"right",0,"2","first_time",0.9875,"ct03",0,0.161616161616162,0,4,1,"Control","Control"
"300",80,"second_win","542",FALSE,"left",0.5,"3","first_time",1,"ct03",0,0.161616161616162,0,4,0,"Control","Control"
"301",81,"second_win","578",FALSE,"left",0.5,"3","first_time",1.0125,"ct03",0,0.161616161616162,0,5,0,"Control","Control"
"302",82,"second_win","481",FALSE,"left",0.5,"3","first_time",1.025,"ct03",0,0.161616161616162,0,5,0,"Control","Control"
"303",83,"second_win","576",FALSE,"left",0.5,"3","first_time",1.0375,"ct03",0,0.161616161616162,0,5,0,"Control","Control"
"304",84,"second_win","539",FALSE,"left",0.5,"3","first_time",1.05,"ct03",0,0.161616161616162,0,5,0,"Control","Control"
"305",85,"second_win","532",FALSE,"left",0.5,"3","first_time",1.0625,"ct03",0,0.161616161616162,0,5,0,"Control","Control"
"306",86,"second_win","586",FALSE,"left",0.5,"3","first_time",1.075,"ct03",0,0.161616161616162,0,5,0,"Control","Control"
"307",87,"second_win","399",FALSE,"left",0.5,"3","first_time",1.0875,"ct03",0,0.161616161616162,0,5,0,"Control","Control"
"308",88,"second_win","443",FALSE,"left",0.5,"3","first_time",1.1,"ct03",0,0.161616161616162,0,5,0,"Control","Control"
"309",89,"second_win","421",FALSE,"left",0.5,"3","first_time",1.1125,"ct03",0,0.161616161616162,0,5,0,"Control","Control"
"310",90,"second_win","1353",FALSE,"left",0.5,"3","first_time",1.125,"ct03",0,0.161616161616162,0,5,0,"Control","Control"
"311",91,"second_win","374",FALSE,"left",0.5,"3","first_time",1.1375,"ct03",0,0.161616161616162,0,5,0,"Control","Control"
"312",92,"second_win","548",FALSE,"left",0.5,"3","first_time",1.15,"ct03",0,0.161616161616162,0,5,0,"Control","Control"
"313",93,"second_win","595",TRUE,"right",1,"2","first_time",1.175,"ct03",0,0.161616161616162,0,5,0,"Control","Control"
"314",94,"second_win","542",FALSE,"left",0.5,"3","first_time",1.1875,"ct03",0,0.161616161616162,0,5,1,"Control","Control"
"315",95,"second_win","463",FALSE,"left",0.5,"3","first_time",1.2,"ct03",0,0.161616161616162,0,5,1,"Control","Control"
"316",96,"second_win","806",FALSE,"left",0.5,"3","first_time",1.2125,"ct03",0,0.161616161616162,0,5,1,"Control","Control"
"317",97,"second_win","460",FALSE,"left",0.5,"3","first_time",1.225,"ct03",0,0.161616161616162,0,5,1,"Control","Control"
"318",98,"second_win","426",FALSE,"left",0.5,"3","first_time",1.2375,"ct03",0,0.161616161616162,0,5,1,"Control","Control"
"319",99,"second_win","2208",FALSE,"left",0.5,"3","first_time",1.25,"ct03",0,0.161616161616162,0,5,1,"Control","Control"
"320",100,"second_win","36",FALSE,"left",0.5,"3","first_time",1.2625,"ct03",0,0.161616161616162,0,5,1,"Control","Control"
"331",1,"first_win","-1",NA,NA,-1,NA,"first_time",0,"ct04",2.5,0.232323232323232,40,1,NA,"Control","Control"
"332",2,"first_win","977",FALSE,"right",0.5,"4","first_time",0.0125,"ct04",2.5,0.232323232323232,40,1,NA,"Control","Control"
"333",3,"first_win","2726",TRUE,"left",1,"1","first_time",0.0375,"ct04",2.5,0.232323232323232,40,1,NA,"Control","Control"
"334",4,"first_win","2016",FALSE,"right",0.5,"4","first_time",0.05,"ct04",2.5,0.232323232323232,40,1,1,"Control","Control"
"335",5,"first_win","1637",TRUE,"left",0,"1","first_time",0.05,"ct04",2.5,0.232323232323232,40,1,1,"Control","Control"
"336",6,"first_win","2328",TRUE,"left",1,"1","first_time",0.075,"ct04",2.5,0.232323232323232,40,1,0,"Control","Control"
"337",7,"first_win","2654",FALSE,"right",0.5,"4","first_time",0.0875,"ct04",2.5,0.232323232323232,40,1,1,"Control","Control"
"338",8,"first_win","1506",TRUE,"left",0,"1","first_time",0.0875,"ct04",2.5,0.232323232323232,40,1,1,"Control","Control"
"339",9,"first_win","1700",TRUE,"left",1,"1","first_time",0.1125,"ct04",2.5,0.232323232323232,40,1,0,"Control","Control"
"340",10,"first_win","1486",TRUE,"left",0,"1","first_time",0.1125,"ct04",2.5,0.232323232323232,40,1,1,"Control","Control"
"341",11,"first_win","977",TRUE,"left",1,"1","first_time",0.1375,"ct04",2.5,0.232323232323232,40,1,0,"Control","Control"
"342",12,"first_win","1110",TRUE,"left",1,"1","first_time",0.1625,"ct04",2.5,0.232323232323232,40,1,1,"Control","Control"
"343",13,"first_win","1688",TRUE,"left",0,"1","first_time",0.1625,"ct04",2.5,0.232323232323232,40,1,1,"Control","Control"
"344",14,"first_win","1149",TRUE,"left",1,"1","first_time",0.1875,"ct04",2.5,0.232323232323232,40,1,0,"Control","Control"
"345",15,"first_win","881",TRUE,"left",1,"1","first_time",0.2125,"ct04",2.5,0.232323232323232,40,1,1,"Control","Control"
"346",16,"first_win","900",TRUE,"left",1,"1","first_time",0.2375,"ct04",2.5,0.232323232323232,40,1,1,"Control","Control"
"347",17,"first_win","856",TRUE,"left",1,"1","first_time",0.2625,"ct04",2.5,0.232323232323232,40,1,1,"Control","Control"
"348",18,"first_win","747",TRUE,"left",1,"1","first_time",0.2875,"ct04",2.5,0.232323232323232,40,1,1,"Control","Control"
"349",19,"first_win","879",TRUE,"left",0,"1","first_time",0.2875,"ct04",2.5,0.232323232323232,40,1,1,"Control","Control"
"350",20,"first_win","1395",TRUE,"left",0,"1","first_time",0.2875,"ct04",2.5,0.232323232323232,40,1,0,"Control","Control"
"351",21,"first_win","1078",TRUE,"left",1,"1","first_time",0.3125,"ct04",2.5,0.232323232323232,40,2,0,"Control","Control"
"352",22,"first_win","1483",TRUE,"left",1,"1","first_time",0.3375,"ct04",2.5,0.232323232323232,40,2,1,"Control","Control"
"353",23,"first_win","1629",TRUE,"left",0,"1","first_time",0.3375,"ct04",2.5,0.232323232323232,40,2,1,"Control","Control"
"354",24,"first_win","976",FALSE,"right",0.5,"4","first_time",0.35,"ct04",2.5,0.232323232323232,40,2,0,"Control","Control"
"355",25,"first_win","1016",FALSE,"right",0.5,"4","first_time",0.3625,"ct04",2.5,0.232323232323232,40,2,0,"Control","Control"
"356",26,"first_win","1290",TRUE,"left",0,"1","first_time",0.3625,"ct04",2.5,0.232323232323232,40,2,0,"Control","Control"
"357",27,"first_win","846",TRUE,"left",0,"1","first_time",0.3625,"ct04",2.5,0.232323232323232,40,2,0,"Control","Control"
"358",28,"first_win","1107",FALSE,"right",0.5,"4","first_time",0.375,"ct04",2.5,0.232323232323232,40,2,0,"Control","Control"
"359",29,"first_win","966",FALSE,"right",0.5,"4","first_time",0.3875,"ct04",2.5,0.232323232323232,40,2,0,"Control","Control"
"360",30,"first_win","761",FALSE,"right",0.5,"4","first_time",0.4,"ct04",2.5,0.232323232323232,40,2,0,"Control","Control"
"361",31,"first_win","907",FALSE,"right",0.5,"4","first_time",0.4125,"ct04",2.5,0.232323232323232,40,2,0,"Control","Control"
"362",32,"first_win","737",FALSE,"right",0.5,"4","first_time",0.425,"ct04",2.5,0.232323232323232,40,2,0,"Control","Control"
"363",33,"first_win","418",FALSE,"right",0.5,"4","first_time",0.4375,"ct04",2.5,0.232323232323232,40,2,0,"Control","Control"
"364",34,"first_win","422",FALSE,"right",0.5,"4","first_time",0.45,"ct04",2.5,0.232323232323232,40,2,0,"Control","Control"
"365",35,"first_win","266",FALSE,"right",0.5,"4","first_time",0.4625,"ct04",2.5,0.232323232323232,40,2,0,"Control","Control"
"366",36,"first_win","303",FALSE,"right",0.5,"4","first_time",0.475,"ct04",2.5,0.232323232323232,40,2,0,"Control","Control"
"367",37,"first_win","275",FALSE,"right",0.5,"4","first_time",0.4875,"ct04",2.5,0.232323232323232,40,2,0,"Control","Control"
"368",38,"first_win","358",FALSE,"right",0.5,"4","first_time",0.5,"ct04",2.5,0.232323232323232,40,2,0,"Control","Control"
"369",39,"first_win","411",FALSE,"right",0.5,"4","first_time",0.5125,"ct04",2.5,0.232323232323232,40,2,0,"Control","Control"
"370",40,"first_win","206",FALSE,"right",0.5,"4","first_time",0.525,"ct04",2.5,0.232323232323232,40,2,0,"Control","Control"
"371",41,"first_win","210",FALSE,"right",0.5,"4","first_time",0.5375,"ct04",2.5,0.232323232323232,40,3,0,"Control","Control"
"372",42,"first_win","311",FALSE,"right",0.5,"4","first_time",0.55,"ct04",2.5,0.232323232323232,40,3,0,"Control","Control"
"373",43,"first_win","367",FALSE,"right",0.5,"4","first_time",0.5625,"ct04",2.5,0.232323232323232,40,3,0,"Control","Control"
"374",44,"first_win","385",FALSE,"right",0.5,"4","first_time",0.575,"ct04",2.5,0.232323232323232,40,3,0,"Control","Control"
"375",45,"first_win","389",FALSE,"right",0.5,"4","first_time",0.5875,"ct04",2.5,0.232323232323232,40,3,0,"Control","Control"
"376",46,"first_win","377",FALSE,"right",0.5,"4","first_time",0.6,"ct04",2.5,0.232323232323232,40,3,0,"Control","Control"
"377",47,"first_win","348",FALSE,"right",0.5,"4","first_time",0.6125,"ct04",2.5,0.232323232323232,40,3,0,"Control","Control"
"378",48,"first_win","511",FALSE,"right",0.5,"4","first_time",0.625,"ct04",2.5,0.232323232323232,40,3,0,"Control","Control"
"379",49,"first_win","322",FALSE,"right",0.5,"4","first_time",0.6375,"ct04",2.5,0.232323232323232,40,3,0,"Control","Control"
"380",50,"first_win","708",FALSE,"right",0.5,"4","first_time",0.65,"ct04",2.5,0.232323232323232,40,3,0,"Control","Control"
"381",51,"first_win","411",FALSE,"right",0.5,"4","first_time",0.6625,"ct04",2.5,0.232323232323232,40,3,0,"Control","Control"
"382",52,"first_win","244",FALSE,"right",0.5,"4","first_time",0.675,"ct04",2.5,0.232323232323232,40,3,0,"Control","Control"
"383",53,"first_win","249",FALSE,"right",0.5,"4","first_time",0.6875,"ct04",2.5,0.232323232323232,40,3,0,"Control","Control"
"384",54,"first_win","380",FALSE,"right",0.5,"4","first_time",0.7,"ct04",2.5,0.232323232323232,40,3,0,"Control","Control"
"385",55,"first_win","368",FALSE,"right",0.5,"4","first_time",0.7125,"ct04",2.5,0.232323232323232,40,3,0,"Control","Control"
"386",56,"first_win","421",FALSE,"right",0.5,"4","first_time",0.725,"ct04",2.5,0.232323232323232,40,3,0,"Control","Control"
"387",57,"first_win","263",FALSE,"right",0.5,"4","first_time",0.7375,"ct04",2.5,0.232323232323232,40,3,0,"Control","Control"
"388",58,"first_win","280",FALSE,"right",0.5,"4","first_time",0.75,"ct04",2.5,0.232323232323232,40,3,0,"Control","Control"
"389",59,"first_win","465",FALSE,"right",0.5,"4","first_time",0.7625,"ct04",2.5,0.232323232323232,40,3,0,"Control","Control"
"390",60,"first_win","275",FALSE,"right",0.5,"4","first_time",0.775,"ct04",2.5,0.232323232323232,40,3,0,"Control","Control"
"391",61,"first_win","612",FALSE,"right",0.5,"4","first_time",0.7875,"ct04",2.5,0.232323232323232,40,4,0,"Control","Control"
"392",62,"first_win","488",FALSE,"right",0.5,"4","first_time",0.8,"ct04",2.5,0.232323232323232,40,4,0,"Control","Control"
"393",63,"first_win","268",FALSE,"right",0.5,"4","first_time",0.8125,"ct04",2.5,0.232323232323232,40,4,0,"Control","Control"
"394",64,"first_win","287",FALSE,"right",0.5,"4","first_time",0.825,"ct04",2.5,0.232323232323232,40,4,0,"Control","Control"
"395",65,"first_win","358",FALSE,"right",0.5,"4","first_time",0.8375,"ct04",2.5,0.232323232323232,40,4,0,"Control","Control"
"396",66,"first_win","203",FALSE,"right",0.5,"4","first_time",0.85,"ct04",2.5,0.232323232323232,40,4,0,"Control","Control"
"397",67,"first_win","259",FALSE,"right",0.5,"4","first_time",0.8625,"ct04",2.5,0.232323232323232,40,4,0,"Control","Control"
"398",68,"first_win","357",FALSE,"right",0.5,"4","first_time",0.875,"ct04",2.5,0.232323232323232,40,4,0,"Control","Control"
"399",69,"first_win","311",FALSE,"right",0.5,"4","first_time",0.8875,"ct04",2.5,0.232323232323232,40,4,0,"Control","Control"
"400",70,"first_win","330",FALSE,"right",0.5,"4","first_time",0.9,"ct04",2.5,0.232323232323232,40,4,0,"Control","Control"
"401",71,"first_win","317",FALSE,"right",0.5,"4","first_time",0.9125,"ct04",2.5,0.232323232323232,40,4,0,"Control","Control"
"402",72,"first_win","255",FALSE,"right",0.5,"4","first_time",0.925,"ct04",2.5,0.232323232323232,40,4,0,"Control","Control"
"403",73,"first_win","322",FALSE,"right",0.5,"4","first_time",0.9375,"ct04",2.5,0.232323232323232,40,4,0,"Control","Control"
"404",74,"first_win","361",FALSE,"right",0.5,"4","first_time",0.95,"ct04",2.5,0.232323232323232,40,4,0,"Control","Control"
"405",75,"first_win","350",FALSE,"right",0.5,"4","first_time",0.9625,"ct04",2.5,0.232323232323232,40,4,0,"Control","Control"
"406",76,"first_win","321",FALSE,"right",0.5,"4","first_time",0.975,"ct04",2.5,0.232323232323232,40,4,0,"Control","Control"
"407",77,"first_win","229",FALSE,"right",0.5,"4","first_time",0.9875,"ct04",2.5,0.232323232323232,40,4,0,"Control","Control"
"408",78,"first_win","214",FALSE,"right",0.5,"4","first_time",1,"ct04",2.5,0.232323232323232,40,4,0,"Control","Control"
"409",79,"first_win","344",FALSE,"right",0.5,"4","first_time",1.0125,"ct04",2.5,0.232323232323232,40,4,0,"Control","Control"
"410",80,"first_win","477",TRUE,"left",0,"1","first_time",1.0125,"ct04",2.5,0.232323232323232,40,4,0,"Control","Control"
"411",81,"first_win","592",FALSE,"right",0.5,"4","first_time",1.025,"ct04",2.5,0.232323232323232,40,5,0,"Control","Control"
"412",82,"first_win","276",FALSE,"right",0.5,"4","first_time",1.0375,"ct04",2.5,0.232323232323232,40,5,0,"Control","Control"
"413",83,"first_win","375",FALSE,"right",0.5,"4","first_time",1.05,"ct04",2.5,0.232323232323232,40,5,0,"Control","Control"
"414",84,"first_win","730",TRUE,"left",0,"1","first_time",1.05,"ct04",2.5,0.232323232323232,40,5,0,"Control","Control"
"415",85,"first_win","381",FALSE,"right",0.5,"4","first_time",1.0625,"ct04",2.5,0.232323232323232,40,5,0,"Control","Control"
"416",86,"first_win","390",FALSE,"right",0.5,"4","first_time",1.075,"ct04",2.5,0.232323232323232,40,5,0,"Control","Control"
"417",87,"first_win","277",FALSE,"right",0.5,"4","first_time",1.0875,"ct04",2.5,0.232323232323232,40,5,0,"Control","Control"
"418",88,"first_win","341",FALSE,"right",0.5,"4","first_time",1.1,"ct04",2.5,0.232323232323232,40,5,0,"Control","Control"
"419",89,"first_win","311",FALSE,"right",0.5,"4","first_time",1.1125,"ct04",2.5,0.232323232323232,40,5,0,"Control","Control"
"420",90,"first_win","438",FALSE,"right",0.5,"4","first_time",1.125,"ct04",2.5,0.232323232323232,40,5,0,"Control","Control"
"421",91,"first_win","393",FALSE,"right",0.5,"4","first_time",1.1375,"ct04",2.5,0.232323232323232,40,5,0,"Control","Control"
"422",92,"first_win","522",FALSE,"right",0.5,"4","first_time",1.15,"ct04",2.5,0.232323232323232,40,5,0,"Control","Control"
"423",93,"first_win","315",FALSE,"right",0.5,"4","first_time",1.1625,"ct04",2.5,0.232323232323232,40,5,0,"Control","Control"
"424",94,"first_win","462",FALSE,"right",0.5,"4","first_time",1.175,"ct04",2.5,0.232323232323232,40,5,0,"Control","Control"
"425",95,"first_win","322",FALSE,"right",0.5,"4","first_time",1.1875,"ct04",2.5,0.232323232323232,40,5,0,"Control","Control"
"426",96,"first_win","324",FALSE,"right",0.5,"4","first_time",1.2,"ct04",2.5,0.232323232323232,40,5,0,"Control","Control"
"427",97,"first_win","488",FALSE,"right",0.5,"4","first_time",1.2125,"ct04",2.5,0.232323232323232,40,5,0,"Control","Control"
"428",98,"first_win","329",FALSE,"right",0.5,"4","first_time",1.225,"ct04",2.5,0.232323232323232,40,5,0,"Control","Control"
"429",99,"first_win","315",FALSE,"right",0.5,"4","first_time",1.2375,"ct04",2.5,0.232323232323232,40,5,0,"Control","Control"
"430",100,"first_win","367",FALSE,"right",0.5,"4","first_time",1.25,"ct04",2.5,0.232323232323232,40,5,0,"Control","Control"
"441",1,"second_win","2317",FALSE,"left",0.5,"3","first_time",0.0125,"ct05",2.5,0.18,50,1,NA,"Control","Control"
"442",2,"second_win","2018",FALSE,"left",0.5,"3","first_time",0.025,"ct05",2.5,0.18,50,1,NA,"Control","Control"
"443",3,"second_win","1198",FALSE,"left",0.5,"3","first_time",0.0375,"ct05",2.5,0.18,50,1,NA,"Control","Control"
"444",4,"second_win","778",FALSE,"left",0.5,"3","first_time",0.05,"ct05",2.5,0.18,50,1,NA,"Control","Control"
"445",5,"second_win","581",FALSE,"left",0.5,"3","first_time",0.0625,"ct05",2.5,0.18,50,1,NA,"Control","Control"
"446",6,"second_win","496",FALSE,"left",0.5,"3","first_time",0.075,"ct05",2.5,0.18,50,1,NA,"Control","Control"
"447",7,"second_win","450",FALSE,"left",0.5,"3","first_time",0.0875,"ct05",2.5,0.18,50,1,NA,"Control","Control"
"448",8,"second_win","1012",FALSE,"left",0.5,"3","first_time",0.1,"ct05",2.5,0.18,50,1,NA,"Control","Control"
"449",9,"second_win","943",FALSE,"left",0.5,"3","first_time",0.1125,"ct05",2.5,0.18,50,1,NA,"Control","Control"
"450",10,"second_win","959",FALSE,"left",0.5,"3","first_time",0.125,"ct05",2.5,0.18,50,1,NA,"Control","Control"
"451",11,"second_win","659",FALSE,"left",0.5,"3","first_time",0.1375,"ct05",2.5,0.18,50,1,NA,"Control","Control"
"452",12,"second_win","676",FALSE,"left",0.5,"3","first_time",0.15,"ct05",2.5,0.18,50,1,NA,"Control","Control"
"453",13,"second_win","1070",FALSE,"left",0.5,"3","first_time",0.1625,"ct05",2.5,0.18,50,1,NA,"Control","Control"
"454",14,"second_win","476",FALSE,"left",0.5,"3","first_time",0.175,"ct05",2.5,0.18,50,1,NA,"Control","Control"
"455",15,"second_win","654",FALSE,"left",0.5,"3","first_time",0.1875,"ct05",2.5,0.18,50,1,NA,"Control","Control"
"456",16,"second_win","641",FALSE,"left",0.5,"3","first_time",0.2,"ct05",2.5,0.18,50,1,NA,"Control","Control"
"457",17,"second_win","856",FALSE,"left",0.5,"3","first_time",0.2125,"ct05",2.5,0.18,50,1,NA,"Control","Control"
"458",18,"second_win","678",FALSE,"left",0.5,"3","first_time",0.225,"ct05",2.5,0.18,50,1,NA,"Control","Control"
"459",19,"second_win","336",FALSE,"left",0.5,"3","first_time",0.2375,"ct05",2.5,0.18,50,1,NA,"Control","Control"
"460",20,"second_win","426",FALSE,"left",0.5,"3","first_time",0.25,"ct05",2.5,0.18,50,1,NA,"Control","Control"
"461",21,"second_win","451",FALSE,"left",0.5,"3","first_time",0.2625,"ct05",2.5,0.18,50,2,NA,"Control","Control"
"462",22,"second_win","349",FALSE,"left",0.5,"3","first_time",0.275,"ct05",2.5,0.18,50,2,NA,"Control","Control"
"463",23,"second_win","272",FALSE,"left",0.5,"3","first_time",0.2875,"ct05",2.5,0.18,50,2,NA,"Control","Control"
"464",24,"second_win","643",FALSE,"left",0.5,"3","first_time",0.3,"ct05",2.5,0.18,50,2,NA,"Control","Control"
"465",25,"second_win","546",FALSE,"left",0.5,"3","first_time",0.3125,"ct05",2.5,0.18,50,2,NA,"Control","Control"
"466",26,"second_win","522",FALSE,"left",0.5,"3","first_time",0.325,"ct05",2.5,0.18,50,2,NA,"Control","Control"
"467",27,"second_win","418",FALSE,"left",0.5,"3","first_time",0.3375,"ct05",2.5,0.18,50,2,NA,"Control","Control"
"468",28,"second_win","500",FALSE,"left",0.5,"3","first_time",0.35,"ct05",2.5,0.18,50,2,NA,"Control","Control"
"469",29,"second_win","645",FALSE,"left",0.5,"3","first_time",0.3625,"ct05",2.5,0.18,50,2,NA,"Control","Control"
"470",30,"second_win","499",FALSE,"left",0.5,"3","first_time",0.375,"ct05",2.5,0.18,50,2,NA,"Control","Control"
"471",31,"second_win","476",FALSE,"left",0.5,"3","first_time",0.3875,"ct05",2.5,0.18,50,2,NA,"Control","Control"
"472",32,"second_win","687",TRUE,"right",0,"4","first_time",0.3875,"ct05",2.5,0.18,50,2,NA,"Control","Control"
"473",33,"second_win","458",FALSE,"left",0.5,"3","first_time",0.4,"ct05",2.5,0.18,50,2,0,"Control","Control"
"474",34,"second_win","389",FALSE,"left",0.5,"3","first_time",0.4125,"ct05",2.5,0.18,50,2,0,"Control","Control"
"475",35,"second_win","376",FALSE,"left",0.5,"3","first_time",0.425,"ct05",2.5,0.18,50,2,0,"Control","Control"
"476",36,"second_win","274",FALSE,"left",0.5,"3","first_time",0.4375,"ct05",2.5,0.18,50,2,0,"Control","Control"
"477",37,"second_win","405",FALSE,"left",0.5,"3","first_time",0.45,"ct05",2.5,0.18,50,2,0,"Control","Control"
"478",38,"second_win","466",FALSE,"left",0.5,"3","first_time",0.4625,"ct05",2.5,0.18,50,2,0,"Control","Control"
"479",39,"second_win","540",FALSE,"left",0.5,"3","first_time",0.475,"ct05",2.5,0.18,50,2,0,"Control","Control"
"480",40,"second_win","471",FALSE,"left",0.5,"3","first_time",0.4875,"ct05",2.5,0.18,50,2,0,"Control","Control"
"481",41,"second_win","497",FALSE,"left",0.5,"3","first_time",0.5,"ct05",2.5,0.18,50,3,0,"Control","Control"
"482",42,"second_win","395",FALSE,"left",0.5,"3","first_time",0.5125,"ct05",2.5,0.18,50,3,0,"Control","Control"
"483",43,"second_win","266",FALSE,"left",0.5,"3","first_time",0.525,"ct05",2.5,0.18,50,3,0,"Control","Control"
"484",44,"second_win","555",FALSE,"left",0.5,"3","first_time",0.5375,"ct05",2.5,0.18,50,3,0,"Control","Control"
"485",45,"second_win","581",FALSE,"left",0.5,"3","first_time",0.55,"ct05",2.5,0.18,50,3,0,"Control","Control"
"486",46,"second_win","576",FALSE,"left",0.5,"3","first_time",0.5625,"ct05",2.5,0.18,50,3,0,"Control","Control"
"487",47,"second_win","426",FALSE,"left",0.5,"3","first_time",0.575,"ct05",2.5,0.18,50,3,0,"Control","Control"
"488",48,"second_win","324",FALSE,"left",0.5,"3","first_time",0.5875,"ct05",2.5,0.18,50,3,0,"Control","Control"
"489",49,"second_win","405",FALSE,"left",0.5,"3","first_time",0.6,"ct05",2.5,0.18,50,3,0,"Control","Control"
"490",50,"second_win","270",FALSE,"left",0.5,"3","first_time",0.6125,"ct05",2.5,0.18,50,3,0,"Control","Control"
"491",51,"second_win","277",FALSE,"left",0.5,"3","first_time",0.625,"ct05",2.5,0.18,50,3,0,"Control","Control"
"492",52,"second_win","308",FALSE,"left",0.5,"3","first_time",0.6375,"ct05",2.5,0.18,50,3,0,"Control","Control"
"493",53,"second_win","517",FALSE,"left",0.5,"3","first_time",0.65,"ct05",2.5,0.18,50,3,0,"Control","Control"
"494",54,"second_win","412",FALSE,"left",0.5,"3","first_time",0.6625,"ct05",2.5,0.18,50,3,0,"Control","Control"
"495",55,"second_win","494",FALSE,"left",0.5,"3","first_time",0.675,"ct05",2.5,0.18,50,3,0,"Control","Control"
"496",56,"second_win","351",FALSE,"left",0.5,"3","first_time",0.6875,"ct05",2.5,0.18,50,3,0,"Control","Control"
"497",57,"second_win","561",FALSE,"left",0.5,"3","first_time",0.7,"ct05",2.5,0.18,50,3,0,"Control","Control"
"498",58,"second_win","331",FALSE,"left",0.5,"3","first_time",0.7125,"ct05",2.5,0.18,50,3,0,"Control","Control"
"499",59,"second_win","235",FALSE,"left",0.5,"3","first_time",0.725,"ct05",2.5,0.18,50,3,0,"Control","Control"
"500",60,"second_win","1581",TRUE,"right",1,"4","first_time",0.75,"ct05",2.5,0.18,50,3,0,"Control","Control"
"501",61,"second_win","727",FALSE,"left",0.5,"3","first_time",0.7625,"ct05",2.5,0.18,50,4,1,"Control","Control"
"502",62,"second_win","477",TRUE,"right",0,"4","first_time",0.7625,"ct05",2.5,0.18,50,4,1,"Control","Control"
"503",63,"second_win","303",FALSE,"left",0.5,"3","first_time",0.775,"ct05",2.5,0.18,50,4,0,"Control","Control"
"504",64,"second_win","303",FALSE,"left",0.5,"3","first_time",0.7875,"ct05",2.5,0.18,50,4,0,"Control","Control"
"505",65,"second_win","265",FALSE,"left",0.5,"3","first_time",0.8,"ct05",2.5,0.18,50,4,0,"Control","Control"
"506",66,"second_win","394",TRUE,"right",1,"4","first_time",0.825,"ct05",2.5,0.18,50,4,0,"Control","Control"
"507",67,"second_win","1553",TRUE,"right",1,"4","first_time",0.85,"ct05",2.5,0.18,50,4,1,"Control","Control"
"508",68,"second_win","743",FALSE,"left",0.5,"3","first_time",0.8625,"ct05",2.5,0.18,50,4,1,"Control","Control"
"509",69,"second_win","521",FALSE,"left",0.5,"3","first_time",0.875,"ct05",2.5,0.18,50,4,1,"Control","Control"
"510",70,"second_win","377",FALSE,"left",0.5,"3","first_time",0.8875,"ct05",2.5,0.18,50,4,1,"Control","Control"
"511",71,"second_win","291",TRUE,"right",1,"4","first_time",0.9125,"ct05",2.5,0.18,50,4,1,"Control","Control"
"512",72,"second_win","406",TRUE,"right",0,"4","first_time",0.9125,"ct05",2.5,0.18,50,4,1,"Control","Control"
"513",73,"second_win","263",TRUE,"right",1,"4","first_time",0.9375,"ct05",2.5,0.18,50,4,0,"Control","Control"
"514",74,"second_win","425",FALSE,"left",0.5,"3","first_time",0.95,"ct05",2.5,0.18,50,4,1,"Control","Control"
"515",75,"second_win","208",FALSE,"left",0.5,"3","first_time",0.9625,"ct05",2.5,0.18,50,4,1,"Control","Control"
"516",76,"second_win","233",FALSE,"left",0.5,"3","first_time",0.975,"ct05",2.5,0.18,50,4,1,"Control","Control"
"517",77,"second_win","240",TRUE,"right",1,"4","first_time",1,"ct05",2.5,0.18,50,4,1,"Control","Control"
"518",78,"second_win","272",FALSE,"left",0.5,"3","first_time",1.0125,"ct05",2.5,0.18,50,4,1,"Control","Control"
"519",79,"second_win","405",FALSE,"left",0.5,"3","first_time",1.025,"ct05",2.5,0.18,50,4,1,"Control","Control"
"520",80,"second_win","277",TRUE,"right",0,"4","first_time",1.025,"ct05",2.5,0.18,50,4,1,"Control","Control"
"521",81,"second_win","235",TRUE,"right",0,"4","first_time",1.025,"ct05",2.5,0.18,50,5,0,"Control","Control"
"522",82,"second_win","277",FALSE,"left",0.5,"3","first_time",1.0375,"ct05",2.5,0.18,50,5,0,"Control","Control"
"523",83,"second_win","310",FALSE,"left",0.5,"3","first_time",1.05,"ct05",2.5,0.18,50,5,0,"Control","Control"
"524",84,"second_win","245",FALSE,"left",0.5,"3","first_time",1.0625,"ct05",2.5,0.18,50,5,0,"Control","Control"
"525",85,"second_win","238",TRUE,"right",1,"4","first_time",1.0875,"ct05",2.5,0.18,50,5,0,"Control","Control"
"526",86,"second_win","329",TRUE,"right",0,"4","first_time",1.0875,"ct05",2.5,0.18,50,5,1,"Control","Control"
"527",87,"second_win","203",FALSE,"left",0.5,"3","first_time",1.1,"ct05",2.5,0.18,50,5,0,"Control","Control"
"528",88,"second_win","357",TRUE,"right",1,"4","first_time",1.125,"ct05",2.5,0.18,50,5,0,"Control","Control"
"529",89,"second_win","55",FALSE,"left",0.5,"3","first_time",1.1375,"ct05",2.5,0.18,50,5,1,"Control","Control"
"530",90,"second_win","216",FALSE,"left",0.5,"3","first_time",1.15,"ct05",2.5,0.18,50,5,1,"Control","Control"
"531",91,"second_win","257",TRUE,"right",0,"4","first_time",1.15,"ct05",2.5,0.18,50,5,1,"Control","Control"
"532",92,"second_win","251",TRUE,"right",0,"4","first_time",1.15,"ct05",2.5,0.18,50,5,0,"Control","Control"
"533",93,"second_win","269",TRUE,"right",0,"4","first_time",1.15,"ct05",2.5,0.18,50,5,0,"Control","Control"
"534",94,"second_win","451",FALSE,"left",0.5,"3","first_time",1.1625,"ct05",2.5,0.18,50,5,0,"Control","Control"
"535",95,"second_win","477",TRUE,"right",1,"4","first_time",1.1875,"ct05",2.5,0.18,50,5,0,"Control","Control"
"536",96,"second_win","230",FALSE,"left",0.5,"3","first_time",1.2,"ct05",2.5,0.18,50,5,1,"Control","Control"
"537",97,"second_win","264",FALSE,"left",0.5,"3","first_time",1.2125,"ct05",2.5,0.18,50,5,1,"Control","Control"
"538",98,"second_win","314",FALSE,"left",0.5,"3","first_time",1.225,"ct05",2.5,0.18,50,5,1,"Control","Control"
"539",99,"second_win","211",FALSE,"left",0.5,"3","first_time",1.2375,"ct05",2.5,0.18,50,5,1,"Control","Control"
"540",100,"second_win","252",FALSE,"left",0.5,"3","first_time",1.25,"ct05",2.5,0.18,50,5,1,"Control","Control"
"551",1,"second_win","-1",NA,NA,-1,NA,"first_time",0,"ct06",2.5,0.387755102040816,30,1,NA,"Control","Control"
"552",2,"second_win","790",FALSE,"right",0.5,"2","first_time",0.0125,"ct06",2.5,0.387755102040816,30,1,NA,"Control","Control"
"553",3,"second_win","512",TRUE,"left",0,"3","first_time",0.0125,"ct06",2.5,0.387755102040816,30,1,NA,"Control","Control"
"554",4,"second_win","380",TRUE,"left",1,"3","first_time",0.0375,"ct06",2.5,0.387755102040816,30,1,0,"Control","Control"
"555",5,"second_win","977",TRUE,"left",0,"3","first_time",0.0375,"ct06",2.5,0.387755102040816,30,1,1,"Control","Control"
"556",6,"second_win","292",TRUE,"left",1,"3","first_time",0.0625,"ct06",2.5,0.387755102040816,30,1,0,"Control","Control"
"557",7,"second_win","27",FALSE,"right",0.5,"2","first_time",0.075,"ct06",2.5,0.387755102040816,30,1,1,"Control","Control"
"558",8,"second_win","444",FALSE,"right",0.5,"2","first_time",0.0875,"ct06",2.5,0.387755102040816,30,1,1,"Control","Control"
"559",9,"second_win","242",FALSE,"right",0.5,"2","first_time",0.1,"ct06",2.5,0.387755102040816,30,1,1,"Control","Control"
"560",10,"second_win","305",TRUE,"left",0,"3","first_time",0.1,"ct06",2.5,0.387755102040816,30,1,1,"Control","Control"
"561",11,"second_win","451",FALSE,"right",0.5,"2","first_time",0.1125,"ct06",2.5,0.387755102040816,30,1,0,"Control","Control"
"562",12,"second_win","422",FALSE,"right",0.5,"2","first_time",0.125,"ct06",2.5,0.387755102040816,30,1,0,"Control","Control"
"563",13,"second_win","377",FALSE,"right",0.5,"2","first_time",0.1375,"ct06",2.5,0.387755102040816,30,1,0,"Control","Control"
"564",14,"second_win","187",TRUE,"left",1,"3","first_time",0.1625,"ct06",2.5,0.387755102040816,30,1,0,"Control","Control"
"565",15,"second_win","285",FALSE,"right",0.5,"2","first_time",0.175,"ct06",2.5,0.387755102040816,30,1,1,"Control","Control"
"566",16,"second_win","289",FALSE,"right",0.5,"2","first_time",0.1875,"ct06",2.5,0.387755102040816,30,1,1,"Control","Control"
"567",17,"second_win","355",FALSE,"right",0.5,"2","first_time",0.2,"ct06",2.5,0.387755102040816,30,1,1,"Control","Control"
"568",18,"second_win","485",FALSE,"right",0.5,"2","first_time",0.2125,"ct06",2.5,0.387755102040816,30,1,1,"Control","Control"
"569",19,"second_win","383",TRUE,"left",0,"3","first_time",0.2125,"ct06",2.5,0.387755102040816,30,1,1,"Control","Control"
"570",20,"second_win","322",TRUE,"left",0,"3","first_time",0.2125,"ct06",2.5,0.387755102040816,30,1,0,"Control","Control"
"571",21,"second_win","277",TRUE,"left",1,"3","first_time",0.2375,"ct06",2.5,0.387755102040816,30,2,0,"Control","Control"
"572",22,"second_win","534",TRUE,"left",0,"3","first_time",0.2375,"ct06",2.5,0.387755102040816,30,2,1,"Control","Control"
"573",23,"second_win","249",TRUE,"left",0,"3","first_time",0.2375,"ct06",2.5,0.387755102040816,30,2,0,"Control","Control"
"574",24,"second_win","221",TRUE,"left",1,"3","first_time",0.2625,"ct06",2.5,0.387755102040816,30,2,0,"Control","Control"
"575",25,"second_win","252",FALSE,"right",0.5,"2","first_time",0.275,"ct06",2.5,0.387755102040816,30,2,1,"Control","Control"
"576",26,"second_win","444",FALSE,"right",0.5,"2","first_time",0.2875,"ct06",2.5,0.387755102040816,30,2,1,"Control","Control"
"577",27,"second_win","287",FALSE,"right",0.5,"2","first_time",0.3,"ct06",2.5,0.387755102040816,30,2,1,"Control","Control"
"578",28,"second_win","270",FALSE,"right",0.5,"2","first_time",0.3125,"ct06",2.5,0.387755102040816,30,2,1,"Control","Control"
"579",29,"second_win","305",TRUE,"left",1,"3","first_time",0.3375,"ct06",2.5,0.387755102040816,30,2,1,"Control","Control"
"580",30,"second_win","228",FALSE,"right",0.5,"2","first_time",0.35,"ct06",2.5,0.387755102040816,30,2,1,"Control","Control"
"581",31,"second_win","274",FALSE,"right",0.5,"2","first_time",0.3625,"ct06",2.5,0.387755102040816,30,2,1,"Control","Control"
"582",32,"second_win","355",TRUE,"left",0,"3","first_time",0.3625,"ct06",2.5,0.387755102040816,30,2,1,"Control","Control"
"583",33,"second_win","295",TRUE,"left",1,"3","first_time",0.3875,"ct06",2.5,0.387755102040816,30,2,0,"Control","Control"
"584",34,"second_win","361",FALSE,"right",0.5,"2","first_time",0.4,"ct06",2.5,0.387755102040816,30,2,1,"Control","Control"
"585",35,"second_win","284",FALSE,"right",0.5,"2","first_time",0.4125,"ct06",2.5,0.387755102040816,30,2,1,"Control","Control"
"586",36,"second_win","704",FALSE,"right",0.5,"2","first_time",0.425,"ct06",2.5,0.387755102040816,30,2,1,"Control","Control"
"587",37,"second_win","549",TRUE,"left",0,"3","first_time",0.425,"ct06",2.5,0.387755102040816,30,2,1,"Control","Control"
"588",38,"second_win","410",TRUE,"left",1,"3","first_time",0.45,"ct06",2.5,0.387755102040816,30,2,0,"Control","Control"
"589",39,"second_win","318",FALSE,"right",0.5,"2","first_time",0.4625,"ct06",2.5,0.387755102040816,30,2,1,"Control","Control"
"590",40,"second_win","-1",NA,NA,-1,NA,"first_time",0.4625,"ct06",2.5,0.387755102040816,30,2,1,"Control","Control"
"591",41,"second_win","322",FALSE,"right",0.5,"2","first_time",0.475,"ct06",2.5,0.387755102040816,30,3,1,"Control","Control"
"592",42,"second_win","432",TRUE,"left",0,"3","first_time",0.475,"ct06",2.5,0.387755102040816,30,3,1,"Control","Control"
"593",43,"second_win","178",TRUE,"left",1,"3","first_time",0.5,"ct06",2.5,0.387755102040816,30,3,0,"Control","Control"
"594",44,"second_win","276",FALSE,"right",0.5,"2","first_time",0.5125,"ct06",2.5,0.387755102040816,30,3,1,"Control","Control"
"595",45,"second_win","279",FALSE,"right",0.5,"2","first_time",0.525,"ct06",2.5,0.387755102040816,30,3,1,"Control","Control"
"596",46,"second_win","241",FALSE,"right",0.5,"2","first_time",0.5375,"ct06",2.5,0.387755102040816,30,3,1,"Control","Control"
"597",47,"second_win","292",FALSE,"right",0.5,"2","first_time",0.55,"ct06",2.5,0.387755102040816,30,3,1,"Control","Control"
"598",48,"second_win","404",FALSE,"right",0.5,"2","first_time",0.5625,"ct06",2.5,0.387755102040816,30,3,1,"Control","Control"
"599",49,"second_win","261",FALSE,"right",0.5,"2","first_time",0.575,"ct06",2.5,0.387755102040816,30,3,1,"Control","Control"
"600",50,"second_win","264",FALSE,"right",0.5,"2","first_time",0.5875,"ct06",2.5,0.387755102040816,30,3,1,"Control","Control"
"601",51,"second_win","283",FALSE,"right",0.5,"2","first_time",0.6,"ct06",2.5,0.387755102040816,30,3,1,"Control","Control"
"602",52,"second_win","396",FALSE,"right",0.5,"2","first_time",0.6125,"ct06",2.5,0.387755102040816,30,3,1,"Control","Control"
"603",53,"second_win","269",FALSE,"right",0.5,"2","first_time",0.625,"ct06",2.5,0.387755102040816,30,3,1,"Control","Control"
"604",54,"second_win","288",FALSE,"right",0.5,"2","first_time",0.6375,"ct06",2.5,0.387755102040816,30,3,1,"Control","Control"
"605",55,"second_win","337",FALSE,"right",0.5,"2","first_time",0.65,"ct06",2.5,0.387755102040816,30,3,1,"Control","Control"
"606",56,"second_win","516",TRUE,"left",0,"3","first_time",0.65,"ct06",2.5,0.387755102040816,30,3,1,"Control","Control"
"607",57,"second_win","214",TRUE,"left",0,"3","first_time",0.65,"ct06",2.5,0.387755102040816,30,3,0,"Control","Control"
"608",58,"second_win","202",TRUE,"left",1,"3","first_time",0.675,"ct06",2.5,0.387755102040816,30,3,0,"Control","Control"
"609",59,"second_win","378",FALSE,"right",0.5,"2","first_time",0.6875,"ct06",2.5,0.387755102040816,30,3,1,"Control","Control"
"610",60,"second_win","252",FALSE,"right",0.5,"2","first_time",0.7,"ct06",2.5,0.387755102040816,30,3,1,"Control","Control"
"611",61,"second_win","250",TRUE,"left",1,"3","first_time",0.725,"ct06",2.5,0.387755102040816,30,4,1,"Control","Control"
"612",62,"second_win","348",FALSE,"right",0.5,"2","first_time",0.7375,"ct06",2.5,0.387755102040816,30,4,1,"Control","Control"
"613",63,"second_win","334",FALSE,"right",0.5,"2","first_time",0.75,"ct06",2.5,0.387755102040816,30,4,1,"Control","Control"
"614",64,"second_win","351",TRUE,"left",1,"3","first_time",0.775,"ct06",2.5,0.387755102040816,30,4,1,"Control","Control"
"615",65,"second_win","209",FALSE,"right",0.5,"2","first_time",0.7875,"ct06",2.5,0.387755102040816,30,4,1,"Control","Control"
"616",66,"second_win","242",FALSE,"right",0.5,"2","first_time",0.8,"ct06",2.5,0.387755102040816,30,4,1,"Control","Control"
"617",67,"second_win","357",TRUE,"left",0,"3","first_time",0.8,"ct06",2.5,0.387755102040816,30,4,1,"Control","Control"
"618",68,"second_win","312",TRUE,"left",1,"3","first_time",0.825,"ct06",2.5,0.387755102040816,30,4,0,"Control","Control"
"619",69,"second_win","360",FALSE,"right",0.5,"2","first_time",0.8375,"ct06",2.5,0.387755102040816,30,4,1,"Control","Control"
"620",70,"second_win","267",FALSE,"right",0.5,"2","first_time",0.85,"ct06",2.5,0.387755102040816,30,4,1,"Control","Control"
"621",71,"second_win","239",TRUE,"left",1,"3","first_time",0.875,"ct06",2.5,0.387755102040816,30,4,1,"Control","Control"
"622",72,"second_win","306",FALSE,"right",0.5,"2","first_time",0.8875,"ct06",2.5,0.387755102040816,30,4,1,"Control","Control"
"623",73,"second_win","371",FALSE,"right",0.5,"2","first_time",0.9,"ct06",2.5,0.387755102040816,30,4,1,"Control","Control"
"624",74,"second_win","210",TRUE,"left",1,"3","first_time",0.925,"ct06",2.5,0.387755102040816,30,4,1,"Control","Control"
"625",75,"second_win","325",FALSE,"right",0.5,"2","first_time",0.9375,"ct06",2.5,0.387755102040816,30,4,1,"Control","Control"
"626",76,"second_win","407",FALSE,"right",0.5,"2","first_time",0.95,"ct06",2.5,0.387755102040816,30,4,1,"Control","Control"
"627",77,"second_win","318",TRUE,"left",1,"3","first_time",0.975,"ct06",2.5,0.387755102040816,30,4,1,"Control","Control"
"628",78,"second_win","334",FALSE,"right",0.5,"2","first_time",0.9875,"ct06",2.5,0.387755102040816,30,4,1,"Control","Control"
"629",79,"second_win","478",FALSE,"right",0.5,"2","first_time",1,"ct06",2.5,0.387755102040816,30,4,1,"Control","Control"
"630",80,"second_win","385",TRUE,"left",0,"3","first_time",1,"ct06",2.5,0.387755102040816,30,4,1,"Control","Control"
"631",81,"second_win","322",TRUE,"left",1,"3","first_time",1.025,"ct06",2.5,0.387755102040816,30,5,0,"Control","Control"
"632",82,"second_win","372",FALSE,"right",0.5,"2","first_time",1.0375,"ct06",2.5,0.387755102040816,30,5,1,"Control","Control"
"633",83,"second_win","358",FALSE,"right",0.5,"2","first_time",1.05,"ct06",2.5,0.387755102040816,30,5,1,"Control","Control"
"634",84,"second_win","538",TRUE,"left",0,"3","first_time",1.05,"ct06",2.5,0.387755102040816,30,5,1,"Control","Control"
"635",85,"second_win","349",TRUE,"left",0,"3","first_time",1.05,"ct06",2.5,0.387755102040816,30,5,0,"Control","Control"
"636",86,"second_win","285",TRUE,"left",1,"3","first_time",1.075,"ct06",2.5,0.387755102040816,30,5,0,"Control","Control"
"637",87,"second_win","676",FALSE,"right",0.5,"2","first_time",1.0875,"ct06",2.5,0.387755102040816,30,5,1,"Control","Control"
"638",88,"second_win","295",FALSE,"right",0.5,"2","first_time",1.1,"ct06",2.5,0.387755102040816,30,5,1,"Control","Control"
"639",89,"second_win","493",FALSE,"right",0.5,"2","first_time",1.1125,"ct06",2.5,0.387755102040816,30,5,1,"Control","Control"
"640",90,"second_win","318",FALSE,"right",0.5,"2","first_time",1.125,"ct06",2.5,0.387755102040816,30,5,1,"Control","Control"
"641",91,"second_win","498",FALSE,"right",0.5,"2","first_time",1.1375,"ct06",2.5,0.387755102040816,30,5,1,"Control","Control"
"642",92,"second_win","250",TRUE,"left",0,"3","first_time",1.1375,"ct06",2.5,0.387755102040816,30,5,1,"Control","Control"
"643",93,"second_win","266",TRUE,"left",1,"3","first_time",1.1625,"ct06",2.5,0.387755102040816,30,5,0,"Control","Control"
"644",94,"second_win","348",FALSE,"right",0.5,"2","first_time",1.175,"ct06",2.5,0.387755102040816,30,5,1,"Control","Control"
"645",95,"second_win","430",FALSE,"right",0.5,"2","first_time",1.1875,"ct06",2.5,0.387755102040816,30,5,1,"Control","Control"
"646",96,"second_win","559",TRUE,"left",0,"3","first_time",1.1875,"ct06",2.5,0.387755102040816,30,5,1,"Control","Control"
"647",97,"second_win","256",TRUE,"left",1,"3","first_time",1.2125,"ct06",2.5,0.387755102040816,30,5,0,"Control","Control"
"648",98,"second_win","322",FALSE,"right",0.5,"2","first_time",1.225,"ct06",2.5,0.387755102040816,30,5,1,"Control","Control"
"649",99,"second_win","421",FALSE,"right",0.5,"2","first_time",1.2375,"ct06",2.5,0.387755102040816,30,5,1,"Control","Control"
"650",100,"second_win","262",FALSE,"right",0.5,"2","first_time",1.25,"ct06",2.5,0.387755102040816,30,5,1,"Control","Control"
"661",1,"first_win","-1",NA,NA,-1,NA,"first_time",0,"ct07",2.5,0.535353535353535,40,1,NA,"Control","Control"
"662",2,"first_win","936",TRUE,"left",1,"1","first_time",0.025,"ct07",2.5,0.535353535353535,40,1,NA,"Control","Control"
"663",3,"first_win","1362",FALSE,"right",0.5,"2","first_time",0.0375,"ct07",2.5,0.535353535353535,40,1,1,"Control","Control"
"664",4,"first_win","864",TRUE,"left",0,"1","first_time",0.0375,"ct07",2.5,0.535353535353535,40,1,1,"Control","Control"
"665",5,"first_win","932",TRUE,"left",1,"1","first_time",0.0625,"ct07",2.5,0.535353535353535,40,1,0,"Control","Control"
"666",6,"first_win","865",TRUE,"left",0,"1","first_time",0.0625,"ct07",2.5,0.535353535353535,40,1,1,"Control","Control"
"667",7,"first_win","823",TRUE,"left",0,"1","first_time",0.0625,"ct07",2.5,0.535353535353535,40,1,0,"Control","Control"
"668",8,"first_win","835",FALSE,"right",0.5,"2","first_time",0.075,"ct07",2.5,0.535353535353535,40,1,0,"Control","Control"
"669",9,"first_win","1141",TRUE,"left",1,"1","first_time",0.1,"ct07",2.5,0.535353535353535,40,1,0,"Control","Control"
"670",10,"first_win","951",FALSE,"right",0.5,"2","first_time",0.1125,"ct07",2.5,0.535353535353535,40,1,1,"Control","Control"
"671",11,"first_win","749",TRUE,"left",0,"1","first_time",0.1125,"ct07",2.5,0.535353535353535,40,1,1,"Control","Control"
"672",12,"first_win","995",TRUE,"left",1,"1","first_time",0.1375,"ct07",2.5,0.535353535353535,40,1,0,"Control","Control"
"673",13,"first_win","1132",FALSE,"right",0.5,"2","first_time",0.15,"ct07",2.5,0.535353535353535,40,1,1,"Control","Control"
"674",14,"first_win","526",FALSE,"right",0.5,"2","first_time",0.1625,"ct07",2.5,0.535353535353535,40,1,1,"Control","Control"
"675",15,"first_win","545",FALSE,"right",0.5,"2","first_time",0.175,"ct07",2.5,0.535353535353535,40,1,1,"Control","Control"
"676",16,"first_win","928",TRUE,"left",0,"1","first_time",0.175,"ct07",2.5,0.535353535353535,40,1,1,"Control","Control"
"677",17,"first_win","958",TRUE,"left",1,"1","first_time",0.2,"ct07",2.5,0.535353535353535,40,1,0,"Control","Control"
"678",18,"first_win","957",FALSE,"right",0.5,"2","first_time",0.2125,"ct07",2.5,0.535353535353535,40,1,1,"Control","Control"
"679",19,"first_win","806",TRUE,"left",0,"1","first_time",0.2125,"ct07",2.5,0.535353535353535,40,1,1,"Control","Control"
"680",20,"first_win","847",TRUE,"left",0,"1","first_time",0.2125,"ct07",2.5,0.535353535353535,40,1,0,"Control","Control"
"681",21,"first_win","1188",FALSE,"right",0.5,"2","first_time",0.225,"ct07",2.5,0.535353535353535,40,2,0,"Control","Control"
"682",22,"first_win","820",TRUE,"left",1,"1","first_time",0.25,"ct07",2.5,0.535353535353535,40,2,0,"Control","Control"
"683",23,"first_win","875",TRUE,"left",0,"1","first_time",0.25,"ct07",2.5,0.535353535353535,40,2,1,"Control","Control"
"684",24,"first_win","681",FALSE,"right",0.5,"2","first_time",0.2625,"ct07",2.5,0.535353535353535,40,2,0,"Control","Control"
"685",25,"first_win","930",FALSE,"right",0.5,"2","first_time",0.275,"ct07",2.5,0.535353535353535,40,2,0,"Control","Control"
"686",26,"first_win","1392",TRUE,"left",1,"1","first_time",0.3,"ct07",2.5,0.535353535353535,40,2,0,"Control","Control"
"687",27,"first_win","1135",FALSE,"right",0.5,"2","first_time",0.3125,"ct07",2.5,0.535353535353535,40,2,1,"Control","Control"
"688",28,"first_win","1619",FALSE,"right",0.5,"2","first_time",0.325,"ct07",2.5,0.535353535353535,40,2,1,"Control","Control"
"689",29,"first_win","742",TRUE,"left",0,"1","first_time",0.325,"ct07",2.5,0.535353535353535,40,2,1,"Control","Control"
"690",30,"first_win","1185",FALSE,"right",0.5,"2","first_time",0.3375,"ct07",2.5,0.535353535353535,40,2,0,"Control","Control"
"691",31,"first_win","503",FALSE,"right",0.5,"2","first_time",0.35,"ct07",2.5,0.535353535353535,40,2,0,"Control","Control"
"692",32,"first_win","446",TRUE,"left",1,"1","first_time",0.375,"ct07",2.5,0.535353535353535,40,2,0,"Control","Control"
"693",33,"first_win","855",TRUE,"left",0,"1","first_time",0.375,"ct07",2.5,0.535353535353535,40,2,1,"Control","Control"
"694",34,"first_win","645",TRUE,"left",1,"1","first_time",0.4,"ct07",2.5,0.535353535353535,40,2,0,"Control","Control"
"695",35,"first_win","956",FALSE,"right",0.5,"2","first_time",0.4125,"ct07",2.5,0.535353535353535,40,2,1,"Control","Control"
"696",36,"first_win","644",TRUE,"left",1,"1","first_time",0.4375,"ct07",2.5,0.535353535353535,40,2,1,"Control","Control"
"697",37,"first_win","1153",TRUE,"left",1,"1","first_time",0.4625,"ct07",2.5,0.535353535353535,40,2,1,"Control","Control"
"698",38,"first_win","808",FALSE,"right",0.5,"2","first_time",0.475,"ct07",2.5,0.535353535353535,40,2,1,"Control","Control"
"699",39,"first_win","738",TRUE,"left",0,"1","first_time",0.475,"ct07",2.5,0.535353535353535,40,2,1,"Control","Control"
"700",40,"first_win","631",TRUE,"left",1,"1","first_time",0.5,"ct07",2.5,0.535353535353535,40,2,0,"Control","Control"
"701",41,"first_win","1189",FALSE,"right",0.5,"2","first_time",0.5125,"ct07",2.5,0.535353535353535,40,3,1,"Control","Control"
"702",42,"first_win","832",TRUE,"left",0,"1","first_time",0.5125,"ct07",2.5,0.535353535353535,40,3,1,"Control","Control"
"703",43,"first_win","1415",TRUE,"left",0,"1","first_time",0.5125,"ct07",2.5,0.535353535353535,40,3,0,"Control","Control"
"704",44,"first_win","516",TRUE,"left",1,"1","first_time",0.5375,"ct07",2.5,0.535353535353535,40,3,0,"Control","Control"
"705",45,"first_win","826",TRUE,"left",1,"1","first_time",0.5625,"ct07",2.5,0.535353535353535,40,3,1,"Control","Control"
"706",46,"first_win","755",FALSE,"right",0.5,"2","first_time",0.575,"ct07",2.5,0.535353535353535,40,3,1,"Control","Control"
"707",47,"first_win","592",FALSE,"right",0.5,"2","first_time",0.5875,"ct07",2.5,0.535353535353535,40,3,1,"Control","Control"
"708",48,"first_win","834",TRUE,"left",0,"1","first_time",0.5875,"ct07",2.5,0.535353535353535,40,3,1,"Control","Control"
"709",49,"first_win","795",TRUE,"left",0,"1","first_time",0.5875,"ct07",2.5,0.535353535353535,40,3,0,"Control","Control"
"710",50,"first_win","629",TRUE,"left",0,"1","first_time",0.5875,"ct07",2.5,0.535353535353535,40,3,0,"Control","Control"
"711",51,"first_win","754",TRUE,"left",0,"1","first_time",0.5875,"ct07",2.5,0.535353535353535,40,3,0,"Control","Control"
"712",52,"first_win","695",FALSE,"right",0.5,"2","first_time",0.6,"ct07",2.5,0.535353535353535,40,3,0,"Control","Control"
"713",53,"first_win","446",FALSE,"right",0.5,"2","first_time",0.6125,"ct07",2.5,0.535353535353535,40,3,0,"Control","Control"
"714",54,"first_win","453",FALSE,"right",0.5,"2","first_time",0.625,"ct07",2.5,0.535353535353535,40,3,0,"Control","Control"
"715",55,"first_win","611",FALSE,"right",0.5,"2","first_time",0.6375,"ct07",2.5,0.535353535353535,40,3,0,"Control","Control"
"716",56,"first_win","264",TRUE,"left",1,"1","first_time",0.6625,"ct07",2.5,0.535353535353535,40,3,0,"Control","Control"
"717",57,"first_win","440",FALSE,"right",0.5,"2","first_time",0.675,"ct07",2.5,0.535353535353535,40,3,1,"Control","Control"
"718",58,"first_win","518",FALSE,"right",0.5,"2","first_time",0.6875,"ct07",2.5,0.535353535353535,40,3,1,"Control","Control"
"719",59,"first_win","446",TRUE,"left",0,"1","first_time",0.6875,"ct07",2.5,0.535353535353535,40,3,1,"Control","Control"
"720",60,"first_win","1502",TRUE,"left",0,"1","first_time",0.6875,"ct07",2.5,0.535353535353535,40,3,0,"Control","Control"
"721",61,"first_win","284",FALSE,"right",0.5,"2","first_time",0.7,"ct07",2.5,0.535353535353535,40,4,0,"Control","Control"
"722",62,"first_win","454",FALSE,"right",0.5,"2","first_time",0.7125,"ct07",2.5,0.535353535353535,40,4,0,"Control","Control"
"723",63,"first_win","319",FALSE,"right",0.5,"2","first_time",0.725,"ct07",2.5,0.535353535353535,40,4,0,"Control","Control"
"724",64,"first_win","607",TRUE,"left",1,"1","first_time",0.75,"ct07",2.5,0.535353535353535,40,4,0,"Control","Control"
"725",65,"first_win","61",FALSE,"right",0.5,"2","first_time",0.7625,"ct07",2.5,0.535353535353535,40,4,1,"Control","Control"
"726",66,"first_win","0",TRUE,"left",1,"1","first_time",0.7875,"ct07",2.5,0.535353535353535,40,4,1,"Control","Control"
"727",67,"first_win","225",FALSE,"right",0.5,"2","first_time",0.8,"ct07",2.5,0.535353535353535,40,4,1,"Control","Control"
"728",68,"first_win","429",FALSE,"right",0.5,"2","first_time",0.8125,"ct07",2.5,0.535353535353535,40,4,1,"Control","Control"
"729",69,"first_win","227",TRUE,"left",1,"1","first_time",0.8375,"ct07",2.5,0.535353535353535,40,4,1,"Control","Control"
"730",70,"first_win","676",TRUE,"left",1,"1","first_time",0.8625,"ct07",2.5,0.535353535353535,40,4,1,"Control","Control"
"731",71,"first_win","515",FALSE,"right",0.5,"2","first_time",0.875,"ct07",2.5,0.535353535353535,40,4,1,"Control","Control"
"732",72,"first_win","482",FALSE,"right",0.5,"2","first_time",0.8875,"ct07",2.5,0.535353535353535,40,4,1,"Control","Control"
"733",73,"first_win","381",TRUE,"left",1,"1","first_time",0.9125,"ct07",2.5,0.535353535353535,40,4,1,"Control","Control"
"734",74,"first_win","1039",TRUE,"left",1,"1","first_time",0.9375,"ct07",2.5,0.535353535353535,40,4,1,"Control","Control"
"735",75,"first_win","455",FALSE,"right",0.5,"2","first_time",0.95,"ct07",2.5,0.535353535353535,40,4,1,"Control","Control"
"736",76,"first_win","1154",TRUE,"left",0,"1","first_time",0.95,"ct07",2.5,0.535353535353535,40,4,1,"Control","Control"
"737",77,"first_win","817",TRUE,"left",1,"1","first_time",0.975,"ct07",2.5,0.535353535353535,40,4,0,"Control","Control"
"738",78,"first_win","222",FALSE,"right",0.5,"2","first_time",0.9875,"ct07",2.5,0.535353535353535,40,4,1,"Control","Control"
"739",79,"first_win","407",FALSE,"right",0.5,"2","first_time",1,"ct07",2.5,0.535353535353535,40,4,1,"Control","Control"
"740",80,"first_win","488",TRUE,"left",0,"1","first_time",1,"ct07",2.5,0.535353535353535,40,4,1,"Control","Control"
"741",81,"first_win","638",TRUE,"left",0,"1","first_time",1,"ct07",2.5,0.535353535353535,40,5,0,"Control","Control"
"742",82,"first_win","307",FALSE,"right",0.5,"2","first_time",1.0125,"ct07",2.5,0.535353535353535,40,5,0,"Control","Control"
"743",83,"first_win","949",TRUE,"left",1,"1","first_time",1.0375,"ct07",2.5,0.535353535353535,40,5,0,"Control","Control"
"744",84,"first_win","667",TRUE,"left",1,"1","first_time",1.0625,"ct07",2.5,0.535353535353535,40,5,1,"Control","Control"
"745",85,"first_win","411",FALSE,"right",0.5,"2","first_time",1.075,"ct07",2.5,0.535353535353535,40,5,1,"Control","Control"
"746",86,"first_win","689",TRUE,"left",1,"1","first_time",1.1,"ct07",2.5,0.535353535353535,40,5,1,"Control","Control"
"747",87,"first_win","419",FALSE,"right",0.5,"2","first_time",1.1125,"ct07",2.5,0.535353535353535,40,5,1,"Control","Control"
"748",88,"first_win","452",FALSE,"right",0.5,"2","first_time",1.125,"ct07",2.5,0.535353535353535,40,5,1,"Control","Control"
"749",89,"first_win","447",FALSE,"right",0.5,"2","first_time",1.1375,"ct07",2.5,0.535353535353535,40,5,1,"Control","Control"
"750",90,"first_win","536",TRUE,"left",1,"1","first_time",1.1625,"ct07",2.5,0.535353535353535,40,5,1,"Control","Control"
"751",91,"first_win","722",TRUE,"left",1,"1","first_time",1.1875,"ct07",2.5,0.535353535353535,40,5,1,"Control","Control"
"752",92,"first_win","374",FALSE,"right",0.5,"2","first_time",1.2,"ct07",2.5,0.535353535353535,40,5,1,"Control","Control"
"753",93,"first_win","448",TRUE,"left",1,"1","first_time",1.225,"ct07",2.5,0.535353535353535,40,5,1,"Control","Control"
"754",94,"first_win","394",FALSE,"right",0.5,"2","first_time",1.2375,"ct07",2.5,0.535353535353535,40,5,1,"Control","Control"
"755",95,"first_win","503",FALSE,"right",0.5,"2","first_time",1.25,"ct07",2.5,0.535353535353535,40,5,1,"Control","Control"
"756",96,"first_win","614",TRUE,"left",1,"1","first_time",1.275,"ct07",2.5,0.535353535353535,40,5,1,"Control","Control"
"757",97,"first_win","1021",TRUE,"left",0,"1","first_time",1.275,"ct07",2.5,0.535353535353535,40,5,1,"Control","Control"
"758",98,"first_win","886",TRUE,"left",1,"1","first_time",1.3,"ct07",2.5,0.535353535353535,40,5,0,"Control","Control"
"759",99,"first_win","696",FALSE,"right",0.5,"2","first_time",1.3125,"ct07",2.5,0.535353535353535,40,5,1,"Control","Control"
"760",100,"first_win","763",FALSE,"right",0.5,"2","first_time",1.325,"ct07",2.5,0.535353535353535,40,5,1,"Control","Control"
"771",1,"second_win","3347",TRUE,"left",0,"1","first_time",0,"ct08",2.5,0.785714285714286,60,1,NA,"Control","Control"
"772",2,"second_win","1596",TRUE,"left",1,"1","first_time",0.025,"ct08",2.5,0.785714285714286,60,1,0,"Control","Control"
"773",3,"second_win","745",TRUE,"left",0,"1","first_time",0.025,"ct08",2.5,0.785714285714286,60,1,1,"Control","Control"
"774",4,"second_win","338",TRUE,"left",1,"1","first_time",0.05,"ct08",2.5,0.785714285714286,60,1,0,"Control","Control"
"775",5,"second_win","389",TRUE,"left",1,"1","first_time",0.075,"ct08",2.5,0.785714285714286,60,1,1,"Control","Control"
"776",6,"second_win","409",TRUE,"left",0,"1","first_time",0.075,"ct08",2.5,0.785714285714286,60,1,1,"Control","Control"
"777",7,"second_win","283",TRUE,"left",0,"1","first_time",0.075,"ct08",2.5,0.785714285714286,60,1,0,"Control","Control"
"778",8,"second_win","322",TRUE,"left",0,"1","first_time",0.075,"ct08",2.5,0.785714285714286,60,1,0,"Control","Control"
"779",9,"second_win","187",TRUE,"left",0,"1","first_time",0.075,"ct08",2.5,0.785714285714286,60,1,0,"Control","Control"
"780",10,"second_win","828",TRUE,"left",0,"1","first_time",0.075,"ct08",2.5,0.785714285714286,60,1,0,"Control","Control"
"781",11,"second_win","602",TRUE,"left",0,"1","first_time",0.075,"ct08",2.5,0.785714285714286,60,1,0,"Control","Control"
"782",12,"second_win","-1",NA,NA,-1,NA,"first_time",0.075,"ct08",2.5,0.785714285714286,60,1,0,"Control","Control"
"783",13,"second_win","1271",FALSE,"right",0.5,"2","first_time",0.0875,"ct08",2.5,0.785714285714286,60,1,0,"Control","Control"
"784",14,"second_win","1080",TRUE,"left",0,"1","first_time",0.0875,"ct08",2.5,0.785714285714286,60,1,0,"Control","Control"
"785",15,"second_win","2553",TRUE,"left",0,"1","first_time",0.0875,"ct08",2.5,0.785714285714286,60,1,0,"Control","Control"
"786",16,"second_win","1532",FALSE,"right",0.5,"2","first_time",0.1,"ct08",2.5,0.785714285714286,60,1,0,"Control","Control"
"787",17,"second_win","1116",TRUE,"left",1,"1","first_time",0.125,"ct08",2.5,0.785714285714286,60,1,0,"Control","Control"
"788",18,"second_win","380",FALSE,"right",0.5,"2","first_time",0.1375,"ct08",2.5,0.785714285714286,60,1,1,"Control","Control"
"789",19,"second_win","208",TRUE,"left",1,"1","first_time",0.1625,"ct08",2.5,0.785714285714286,60,1,1,"Control","Control"
"790",20,"second_win","387",FALSE,"right",0.5,"2","first_time",0.175,"ct08",2.5,0.785714285714286,60,1,1,"Control","Control"
"791",21,"second_win","277",TRUE,"left",1,"1","first_time",0.2,"ct08",2.5,0.785714285714286,60,2,1,"Control","Control"
"792",22,"second_win","89",FALSE,"right",0.5,"2","first_time",0.2125,"ct08",2.5,0.785714285714286,60,2,1,"Control","Control"
"793",23,"second_win","315",TRUE,"left",1,"1","first_time",0.2375,"ct08",2.5,0.785714285714286,60,2,1,"Control","Control"
"794",24,"second_win","349",FALSE,"right",0.5,"2","first_time",0.25,"ct08",2.5,0.785714285714286,60,2,1,"Control","Control"
"795",25,"second_win","17",TRUE,"left",1,"1","first_time",0.275,"ct08",2.5,0.785714285714286,60,2,1,"Control","Control"
"796",26,"second_win","53",FALSE,"right",0.5,"2","first_time",0.2875,"ct08",2.5,0.785714285714286,60,2,1,"Control","Control"
"797",27,"second_win","416",TRUE,"left",0,"1","first_time",0.2875,"ct08",2.5,0.785714285714286,60,2,1,"Control","Control"
"798",28,"second_win","531",TRUE,"left",1,"1","first_time",0.3125,"ct08",2.5,0.785714285714286,60,2,0,"Control","Control"
"799",29,"second_win","407",FALSE,"right",0.5,"2","first_time",0.325,"ct08",2.5,0.785714285714286,60,2,1,"Control","Control"
"800",30,"second_win","169",TRUE,"left",0,"1","first_time",0.325,"ct08",2.5,0.785714285714286,60,2,1,"Control","Control"
"801",31,"second_win","11",TRUE,"left",1,"1","first_time",0.35,"ct08",2.5,0.785714285714286,60,2,0,"Control","Control"
"802",32,"second_win","303",FALSE,"right",0.5,"2","first_time",0.3625,"ct08",2.5,0.785714285714286,60,2,1,"Control","Control"
"803",33,"second_win","1",TRUE,"left",1,"1","first_time",0.3875,"ct08",2.5,0.785714285714286,60,2,1,"Control","Control"
"804",34,"second_win","83",FALSE,"right",0.5,"2","first_time",0.4,"ct08",2.5,0.785714285714286,60,2,1,"Control","Control"
"805",35,"second_win","245",FALSE,"right",0.5,"2","first_time",0.4125,"ct08",2.5,0.785714285714286,60,2,1,"Control","Control"
"806",36,"second_win","234",FALSE,"right",0.5,"2","first_time",0.425,"ct08",2.5,0.785714285714286,60,2,1,"Control","Control"
"807",37,"second_win","829",FALSE,"right",0.5,"2","first_time",0.4375,"ct08",2.5,0.785714285714286,60,2,1,"Control","Control"
"808",38,"second_win","623",FALSE,"right",0.5,"2","first_time",0.45,"ct08",2.5,0.785714285714286,60,2,1,"Control","Control"
"809",39,"second_win","-1",NA,NA,-1,NA,"first_time",0.45,"ct08",2.5,0.785714285714286,60,2,1,"Control","Control"
"810",40,"second_win","701",FALSE,"right",0.5,"2","first_time",0.4625,"ct08",2.5,0.785714285714286,60,2,1,"Control","Control"
"811",41,"second_win","751",FALSE,"right",0.5,"2","first_time",0.475,"ct08",2.5,0.785714285714286,60,3,1,"Control","Control"
"812",42,"second_win","257",FALSE,"right",0.5,"2","first_time",0.4875,"ct08",2.5,0.785714285714286,60,3,1,"Control","Control"
"813",43,"second_win","259",TRUE,"left",0,"1","first_time",0.4875,"ct08",2.5,0.785714285714286,60,3,1,"Control","Control"
"814",44,"second_win","2998",TRUE,"left",1,"1","first_time",0.5125,"ct08",2.5,0.785714285714286,60,3,0,"Control","Control"
"815",45,"second_win","250",TRUE,"left",0,"1","first_time",0.5125,"ct08",2.5,0.785714285714286,60,3,1,"Control","Control"
"816",46,"second_win","14",TRUE,"left",0,"1","first_time",0.5125,"ct08",2.5,0.785714285714286,60,3,0,"Control","Control"
"817",47,"second_win","2016",FALSE,"right",0.5,"2","first_time",0.525,"ct08",2.5,0.785714285714286,60,3,0,"Control","Control"
"818",48,"second_win","626",TRUE,"left",1,"1","first_time",0.55,"ct08",2.5,0.785714285714286,60,3,0,"Control","Control"
"819",49,"second_win","788",TRUE,"left",0,"1","first_time",0.55,"ct08",2.5,0.785714285714286,60,3,1,"Control","Control"
"820",50,"second_win","264",FALSE,"right",0.5,"2","first_time",0.5625,"ct08",2.5,0.785714285714286,60,3,0,"Control","Control"
"821",51,"second_win","74",TRUE,"left",0,"1","first_time",0.5625,"ct08",2.5,0.785714285714286,60,3,0,"Control","Control"
"822",52,"second_win","57",TRUE,"left",1,"1","first_time",0.5875,"ct08",2.5,0.785714285714286,60,3,0,"Control","Control"
"823",53,"second_win","1468",TRUE,"left",1,"1","first_time",0.6125,"ct08",2.5,0.785714285714286,60,3,1,"Control","Control"
"824",54,"second_win","287",TRUE,"left",0,"1","first_time",0.6125,"ct08",2.5,0.785714285714286,60,3,1,"Control","Control"
"825",55,"second_win","2289",TRUE,"left",0,"1","first_time",0.6125,"ct08",2.5,0.785714285714286,60,3,0,"Control","Control"
"826",56,"second_win","2165",TRUE,"left",0,"1","first_time",0.6125,"ct08",2.5,0.785714285714286,60,3,0,"Control","Control"
"827",57,"second_win","2262",TRUE,"left",0,"1","first_time",0.6125,"ct08",2.5,0.785714285714286,60,3,0,"Control","Control"
"828",58,"second_win","839",FALSE,"right",0.5,"2","first_time",0.625,"ct08",2.5,0.785714285714286,60,3,0,"Control","Control"
"829",59,"second_win","3480",TRUE,"left",0,"1","first_time",0.625,"ct08",2.5,0.785714285714286,60,3,0,"Control","Control"
"830",60,"second_win","936",FALSE,"right",0.5,"2","first_time",0.6375,"ct08",2.5,0.785714285714286,60,3,0,"Control","Control"
"831",61,"second_win","1396",TRUE,"left",1,"1","first_time",0.6625,"ct08",2.5,0.785714285714286,60,4,0,"Control","Control"
"832",62,"second_win","1431",TRUE,"left",1,"1","first_time",0.6875,"ct08",2.5,0.785714285714286,60,4,1,"Control","Control"
"833",63,"second_win","235",TRUE,"left",0,"1","first_time",0.6875,"ct08",2.5,0.785714285714286,60,4,1,"Control","Control"
"834",64,"second_win","174",TRUE,"left",1,"1","first_time",0.7125,"ct08",2.5,0.785714285714286,60,4,0,"Control","Control"
"835",65,"second_win","319",TRUE,"left",0,"1","first_time",0.7125,"ct08",2.5,0.785714285714286,60,4,1,"Control","Control"
"836",66,"second_win","305",TRUE,"left",1,"1","first_time",0.7375,"ct08",2.5,0.785714285714286,60,4,0,"Control","Control"
"837",67,"second_win","291",TRUE,"left",0,"1","first_time",0.7375,"ct08",2.5,0.785714285714286,60,4,1,"Control","Control"
"838",68,"second_win","199",TRUE,"left",1,"1","first_time",0.7625,"ct08",2.5,0.785714285714286,60,4,0,"Control","Control"
"839",69,"second_win","0",TRUE,"left",1,"1","first_time",0.7875,"ct08",2.5,0.785714285714286,60,4,1,"Control","Control"
"840",70,"second_win","162",TRUE,"left",0,"1","first_time",0.7875,"ct08",2.5,0.785714285714286,60,4,1,"Control","Control"
"841",71,"second_win","595",TRUE,"left",1,"1","first_time",0.8125,"ct08",2.5,0.785714285714286,60,4,0,"Control","Control"
"842",72,"second_win","17",TRUE,"left",1,"1","first_time",0.8375,"ct08",2.5,0.785714285714286,60,4,1,"Control","Control"
"843",73,"second_win","1893",TRUE,"left",1,"1","first_time",0.8625,"ct08",2.5,0.785714285714286,60,4,1,"Control","Control"
"844",74,"second_win","1",TRUE,"left",0,"1","first_time",0.8625,"ct08",2.5,0.785714285714286,60,4,1,"Control","Control"
"845",75,"second_win","169",TRUE,"left",1,"1","first_time",0.8875,"ct08",2.5,0.785714285714286,60,4,0,"Control","Control"
"846",76,"second_win","25",TRUE,"left",0,"1","first_time",0.8875,"ct08",2.5,0.785714285714286,60,4,1,"Control","Control"
"847",77,"second_win","0",TRUE,"left",1,"1","first_time",0.9125,"ct08",2.5,0.785714285714286,60,4,0,"Control","Control"
"848",78,"second_win","427",TRUE,"left",0,"1","first_time",0.9125,"ct08",2.5,0.785714285714286,60,4,1,"Control","Control"
"849",79,"second_win","123",TRUE,"left",1,"1","first_time",0.9375,"ct08",2.5,0.785714285714286,60,4,0,"Control","Control"
"850",80,"second_win","224",TRUE,"left",0,"1","first_time",0.9375,"ct08",2.5,0.785714285714286,60,4,1,"Control","Control"
"851",81,"second_win","193",TRUE,"left",1,"1","first_time",0.9625,"ct08",2.5,0.785714285714286,60,5,0,"Control","Control"
"852",82,"second_win","0",TRUE,"left",1,"1","first_time",0.9875,"ct08",2.5,0.785714285714286,60,5,1,"Control","Control"
"853",83,"second_win","248",TRUE,"left",1,"1","first_time",1.0125,"ct08",2.5,0.785714285714286,60,5,1,"Control","Control"
"854",84,"second_win","423",TRUE,"left",0,"1","first_time",1.0125,"ct08",2.5,0.785714285714286,60,5,1,"Control","Control"
"855",85,"second_win","281",TRUE,"left",0,"1","first_time",1.0125,"ct08",2.5,0.785714285714286,60,5,0,"Control","Control"
"856",86,"second_win","223",TRUE,"left",0,"1","first_time",1.0125,"ct08",2.5,0.785714285714286,60,5,0,"Control","Control"
"857",87,"second_win","113",TRUE,"left",1,"1","first_time",1.0375,"ct08",2.5,0.785714285714286,60,5,0,"Control","Control"
"858",88,"second_win","277",TRUE,"left",1,"1","first_time",1.0625,"ct08",2.5,0.785714285714286,60,5,1,"Control","Control"
"859",89,"second_win","247",TRUE,"left",1,"1","first_time",1.0875,"ct08",2.5,0.785714285714286,60,5,1,"Control","Control"
"860",90,"second_win","410",TRUE,"left",1,"1","first_time",1.1125,"ct08",2.5,0.785714285714286,60,5,1,"Control","Control"
"861",91,"second_win","29",TRUE,"left",1,"1","first_time",1.1375,"ct08",2.5,0.785714285714286,60,5,1,"Control","Control"
"862",92,"second_win","574",TRUE,"left",1,"1","first_time",1.1625,"ct08",2.5,0.785714285714286,60,5,1,"Control","Control"
"863",93,"second_win","50",TRUE,"left",0,"1","first_time",1.1625,"ct08",2.5,0.785714285714286,60,5,1,"Control","Control"
"864",94,"second_win","1",TRUE,"left",1,"1","first_time",1.1875,"ct08",2.5,0.785714285714286,60,5,0,"Control","Control"
"865",95,"second_win","392",TRUE,"left",0,"1","first_time",1.1875,"ct08",2.5,0.785714285714286,60,5,1,"Control","Control"
"866",96,"second_win","40",TRUE,"left",0,"1","first_time",1.1875,"ct08",2.5,0.785714285714286,60,5,0,"Control","Control"
"867",97,"second_win","794",TRUE,"left",0,"1","first_time",1.1875,"ct08",2.5,0.785714285714286,60,5,0,"Control","Control"
"868",98,"second_win","77",TRUE,"left",0,"1","first_time",1.1875,"ct08",2.5,0.785714285714286,60,5,0,"Control","Control"
"869",99,"second_win","174",TRUE,"left",1,"1","first_time",1.2125,"ct08",2.5,0.785714285714286,60,5,0,"Control","Control"
"870",100,"second_win","0",TRUE,"left",0,"1","first_time",1.2125,"ct08",2.5,0.785714285714286,60,5,1,"Control","Control"
"881",1,"second_win","1454",TRUE,"right",0,"4","first_time",0,"ct09",0,0.38,0,1,NA,"Control","Control"
"882",2,"second_win","906",FALSE,"left",0.5,"3","first_time",0.0125,"ct09",0,0.38,0,1,0,"Control","Control"
"883",3,"second_win","1159",TRUE,"right",1,"4","first_time",0.0375,"ct09",0,0.38,0,1,0,"Control","Control"
"884",4,"second_win","857",FALSE,"left",0.5,"3","first_time",0.05,"ct09",0,0.38,0,1,1,"Control","Control"
"885",5,"second_win","666",FALSE,"left",0.5,"3","first_time",0.0625,"ct09",0,0.38,0,1,1,"Control","Control"
"886",6,"second_win","189",TRUE,"right",0,"4","first_time",0.0625,"ct09",0,0.38,0,1,1,"Control","Control"
"887",7,"second_win","292",TRUE,"right",1,"4","first_time",0.0875,"ct09",0,0.38,0,1,0,"Control","Control"
"888",8,"second_win","822",TRUE,"right",0,"4","first_time",0.0875,"ct09",0,0.38,0,1,1,"Control","Control"
"889",9,"second_win","294",TRUE,"right",0,"4","first_time",0.0875,"ct09",0,0.38,0,1,0,"Control","Control"
"890",10,"second_win","321",TRUE,"right",0,"4","first_time",0.0875,"ct09",0,0.38,0,1,0,"Control","Control"
"891",11,"second_win","324",FALSE,"left",0.5,"3","first_time",0.1,"ct09",0,0.38,0,1,0,"Control","Control"
"892",12,"second_win","275",TRUE,"right",0,"4","first_time",0.1,"ct09",0,0.38,0,1,0,"Control","Control"
"893",13,"second_win","250",FALSE,"left",0.5,"3","first_time",0.1125,"ct09",0,0.38,0,1,0,"Control","Control"
"894",14,"second_win","229",FALSE,"left",0.5,"3","first_time",0.125,"ct09",0,0.38,0,1,0,"Control","Control"
"895",15,"second_win","239",TRUE,"right",1,"4","first_time",0.15,"ct09",0,0.38,0,1,0,"Control","Control"
"896",16,"second_win","288",FALSE,"left",0.5,"3","first_time",0.1625,"ct09",0,0.38,0,1,1,"Control","Control"
"897",17,"second_win","299",TRUE,"right",0,"4","first_time",0.1625,"ct09",0,0.38,0,1,1,"Control","Control"
"898",18,"second_win","211",FALSE,"left",0.5,"3","first_time",0.175,"ct09",0,0.38,0,1,0,"Control","Control"
"899",19,"second_win","556",TRUE,"right",1,"4","first_time",0.2,"ct09",0,0.38,0,1,0,"Control","Control"
"900",20,"second_win","270",FALSE,"left",0.5,"3","first_time",0.2125,"ct09",0,0.38,0,1,1,"Control","Control"
"901",21,"second_win","278",TRUE,"right",1,"4","first_time",0.2375,"ct09",0,0.38,0,2,1,"Control","Control"
"902",22,"second_win","2372",TRUE,"right",1,"4","first_time",0.2625,"ct09",0,0.38,0,2,1,"Control","Control"
"903",23,"second_win","1565",FALSE,"left",0.5,"3","first_time",0.275,"ct09",0,0.38,0,2,1,"Control","Control"
"904",24,"second_win","360",TRUE,"right",0,"4","first_time",0.275,"ct09",0,0.38,0,2,1,"Control","Control"
"905",25,"second_win","243",FALSE,"left",0.5,"3","first_time",0.2875,"ct09",0,0.38,0,2,0,"Control","Control"
"906",26,"second_win","341",FALSE,"left",0.5,"3","first_time",0.3,"ct09",0,0.38,0,2,0,"Control","Control"
"907",27,"second_win","318",FALSE,"left",0.5,"3","first_time",0.3125,"ct09",0,0.38,0,2,0,"Control","Control"
"908",28,"second_win","274",TRUE,"right",0,"4","first_time",0.3125,"ct09",0,0.38,0,2,0,"Control","Control"
"909",29,"second_win","259",FALSE,"left",0.5,"3","first_time",0.325,"ct09",0,0.38,0,2,0,"Control","Control"
"910",30,"second_win","909",FALSE,"left",0.5,"3","first_time",0.3375,"ct09",0,0.38,0,2,0,"Control","Control"
"911",31,"second_win","289",TRUE,"right",0,"4","first_time",0.3375,"ct09",0,0.38,0,2,0,"Control","Control"
"912",32,"second_win","267",FALSE,"left",0.5,"3","first_time",0.35,"ct09",0,0.38,0,2,0,"Control","Control"
