"","trial","outcome_condition","rt","chose_risky","key_pressed","reward","color","session","total_earned","participant","condition","video","age","gender","risk_first_to_mind","total_risk","judged_percent","block","last_risk","experiment","PANAS_positive","PANAS_negative","draw_left","draw_right","draw_total","draw_risk"
"1:1",1,"first_win","1993",TRUE,"left",1,"4","first_time",0.025,"cd1","General","Restaurant",31,"F",2.5,0.43,0,1,NA,"Gain",29,13,6,4,8,6
"1:2",2,"first_win","1273",TRUE,"left",0,"4","first_time",0.025,"cd1","General","Restaurant",31,"F",2.5,0.43,0,1,1,"Gain",29,13,6,4,8,6
"1:3",3,"first_win","1050",TRUE,"left",1,"4","first_time",0.05,"cd1","General","Restaurant",31,"F",2.5,0.43,0,1,0,"Gain",29,13,6,4,8,6
"1:4",4,"first_win","3005",TRUE,"left",0,"4","first_time",0.05,"cd1","General","Restaurant",31,"F",2.5,0.43,0,1,1,"Gain",29,13,6,4,8,6
"1:5",5,"first_win","379",TRUE,"left",1,"4","first_time",0.075,"cd1","General","Restaurant",31,"F",2.5,0.43,0,1,0,"Gain",29,13,6,4,8,6
"1:6",6,"first_win","787",FALSE,"right",0.5,"3","first_time",0.0875,"cd1","General","Restaurant",31,"F",2.5,0.43,0,1,1,"Gain",29,13,6,4,8,6
"1:7",7,"first_win","913",TRUE,"left",0,"4","first_time",0.0875,"cd1","General","Restaurant",31,"F",2.5,0.43,0,1,1,"Gain",29,13,6,4,8,6
"1:8",8,"first_win","271",TRUE,"left",0,"4","first_time",0.0875,"cd1","General","Restaurant",31,"F",2.5,0.43,0,1,0,"Gain",29,13,6,4,8,6
"1:9",9,"first_win","715",TRUE,"left",0,"4","first_time",0.0875,"cd1","General","Restaurant",31,"F",2.5,0.43,0,1,0,"Gain",29,13,6,4,8,6
"1:10",10,"first_win","1699",TRUE,"left",1,"4","first_time",0.1125,"cd1","General","Restaurant",31,"F",2.5,0.43,0,1,0,"Gain",29,13,6,4,8,6
"1:11",11,"first_win","424",FALSE,"right",0.5,"3","first_time",0.125,"cd1","General","Restaurant",31,"F",2.5,0.43,0,1,1,"Gain",29,13,6,4,8,6
"1:12",12,"first_win","457",FALSE,"right",0.5,"3","first_time",0.1375,"cd1","General","Restaurant",31,"F",2.5,0.43,0,1,1,"Gain",29,13,6,4,8,6
"1:13",13,"first_win","559",FALSE,"right",0.5,"3","first_time",0.15,"cd1","General","Restaurant",31,"F",2.5,0.43,0,1,1,"Gain",29,13,6,4,8,6
"1:14",14,"first_win","581",TRUE,"left",1,"4","first_time",0.175,"cd1","General","Restaurant",31,"F",2.5,0.43,0,1,1,"Gain",29,13,6,4,8,6
"1:15",15,"first_win","363",FALSE,"right",0.5,"3","first_time",0.1875,"cd1","General","Restaurant",31,"F",2.5,0.43,0,1,1,"Gain",29,13,6,4,8,6
"1:16",16,"first_win","579",FALSE,"right",0.5,"3","first_time",0.2,"cd1","General","Restaurant",31,"F",2.5,0.43,0,1,1,"Gain",29,13,6,4,8,6
"1:17",17,"first_win","536",FALSE,"right",0.5,"3","first_time",0.2125,"cd1","General","Restaurant",31,"F",2.5,0.43,0,1,1,"Gain",29,13,6,4,8,6
"1:18",18,"first_win","346",TRUE,"left",1,"4","first_time",0.2375,"cd1","General","Restaurant",31,"F",2.5,0.43,0,1,1,"Gain",29,13,6,4,8,6
"1:19",19,"first_win","520",FALSE,"right",0.5,"3","first_time",0.25,"cd1","General","Restaurant",31,"F",2.5,0.43,0,1,1,"Gain",29,13,6,4,8,6
"1:20",20,"first_win","478",FALSE,"right",0.5,"3","first_time",0.2625,"cd1","General","Restaurant",31,"F",2.5,0.43,0,1,1,"Gain",29,13,6,4,8,6
"1:21",21,"first_win","484",FALSE,"right",0.5,"3","first_time",0.275,"cd1","General","Restaurant",31,"F",2.5,0.43,0,2,1,"Gain",29,13,6,4,8,6
"1:22",22,"first_win","425",TRUE,"left",1,"4","first_time",0.3,"cd1","General","Restaurant",31,"F",2.5,0.43,0,2,1,"Gain",29,13,6,4,8,6
"1:23",23,"first_win","1599",TRUE,"left",0,"4","first_time",0.3,"cd1","General","Restaurant",31,"F",2.5,0.43,0,2,1,"Gain",29,13,6,4,8,6
"1:24",24,"first_win","529",FALSE,"right",0.5,"3","first_time",0.3125,"cd1","General","Restaurant",31,"F",2.5,0.43,0,2,0,"Gain",29,13,6,4,8,6
"1:25",25,"first_win","471",FALSE,"right",0.5,"3","first_time",0.325,"cd1","General","Restaurant",31,"F",2.5,0.43,0,2,0,"Gain",29,13,6,4,8,6
"1:26",26,"first_win","406",TRUE,"left",1,"4","first_time",0.35,"cd1","General","Restaurant",31,"F",2.5,0.43,0,2,0,"Gain",29,13,6,4,8,6
"1:27",27,"first_win","306",FALSE,"right",0.5,"3","first_time",0.3625,"cd1","General","Restaurant",31,"F",2.5,0.43,0,2,1,"Gain",29,13,6,4,8,6
"1:28",28,"first_win","427",FALSE,"right",0.5,"3","first_time",0.375,"cd1","General","Restaurant",31,"F",2.5,0.43,0,2,1,"Gain",29,13,6,4,8,6
"1:29",29,"first_win","428",FALSE,"right",0.5,"3","first_time",0.3875,"cd1","General","Restaurant",31,"F",2.5,0.43,0,2,1,"Gain",29,13,6,4,8,6
"1:30",30,"first_win","303",TRUE,"left",0,"4","first_time",0.3875,"cd1","General","Restaurant",31,"F",2.5,0.43,0,2,1,"Gain",29,13,6,4,8,6
"1:31",31,"first_win","379",TRUE,"left",0,"4","first_time",0.3875,"cd1","General","Restaurant",31,"F",2.5,0.43,0,2,0,"Gain",29,13,6,4,8,6
"1:32",32,"first_win","211",TRUE,"left",1,"4","first_time",0.4125,"cd1","General","Restaurant",31,"F",2.5,0.43,0,2,0,"Gain",29,13,6,4,8,6
"1:33",33,"first_win","440",FALSE,"right",0.5,"3","first_time",0.425,"cd1","General","Restaurant",31,"F",2.5,0.43,0,2,1,"Gain",29,13,6,4,8,6
"1:34",34,"first_win","340",FALSE,"right",0.5,"3","first_time",0.4375,"cd1","General","Restaurant",31,"F",2.5,0.43,0,2,1,"Gain",29,13,6,4,8,6
"1:35",35,"first_win","304",TRUE,"left",0,"4","first_time",0.4375,"cd1","General","Restaurant",31,"F",2.5,0.43,0,2,1,"Gain",29,13,6,4,8,6
"1:36",36,"first_win","250",TRUE,"left",0,"4","first_time",0.4375,"cd1","General","Restaurant",31,"F",2.5,0.43,0,2,0,"Gain",29,13,6,4,8,6
"1:37",37,"first_win","977",TRUE,"left",1,"4","first_time",0.4625,"cd1","General","Restaurant",31,"F",2.5,0.43,0,2,0,"Gain",29,13,6,4,8,6
"1:38",38,"first_win","348",FALSE,"right",0.5,"3","first_time",0.475,"cd1","General","Restaurant",31,"F",2.5,0.43,0,2,1,"Gain",29,13,6,4,8,6
"1:39",39,"first_win","354",FALSE,"right",0.5,"3","first_time",0.4875,"cd1","General","Restaurant",31,"F",2.5,0.43,0,2,1,"Gain",29,13,6,4,8,6
"1:40",40,"first_win","344",TRUE,"left",0,"4","first_time",0.4875,"cd1","General","Restaurant",31,"F",2.5,0.43,0,2,1,"Gain",29,13,6,4,8,6
"1:41",41,"first_win","286",FALSE,"right",0.5,"3","first_time",0.5,"cd1","General","Restaurant",31,"F",2.5,0.43,0,3,0,"Gain",29,13,6,4,8,6
"1:42",42,"first_win","793",FALSE,"right",0.5,"3","first_time",0.5125,"cd1","General","Restaurant",31,"F",2.5,0.43,0,3,0,"Gain",29,13,6,4,8,6
"1:43",43,"first_win","367",TRUE,"left",0,"4","first_time",0.5125,"cd1","General","Restaurant",31,"F",2.5,0.43,0,3,0,"Gain",29,13,6,4,8,6
"1:44",44,"first_win","272",FALSE,"right",0.5,"3","first_time",0.525,"cd1","General","Restaurant",31,"F",2.5,0.43,0,3,0,"Gain",29,13,6,4,8,6
"1:45",45,"first_win","593",FALSE,"right",0.5,"3","first_time",0.5375,"cd1","General","Restaurant",31,"F",2.5,0.43,0,3,0,"Gain",29,13,6,4,8,6
"1:46",46,"first_win","416",TRUE,"left",1,"4","first_time",0.5625,"cd1","General","Restaurant",31,"F",2.5,0.43,0,3,0,"Gain",29,13,6,4,8,6
"1:47",47,"first_win","374",FALSE,"right",0.5,"3","first_time",0.575,"cd1","General","Restaurant",31,"F",2.5,0.43,0,3,1,"Gain",29,13,6,4,8,6
"1:48",48,"first_win","307",FALSE,"right",0.5,"3","first_time",0.5875,"cd1","General","Restaurant",31,"F",2.5,0.43,0,3,1,"Gain",29,13,6,4,8,6
"1:49",49,"first_win","327",FALSE,"right",0.5,"3","first_time",0.6,"cd1","General","Restaurant",31,"F",2.5,0.43,0,3,1,"Gain",29,13,6,4,8,6
"1:50",50,"first_win","267",FALSE,"right",0.5,"3","first_time",0.6125,"cd1","General","Restaurant",31,"F",2.5,0.43,0,3,1,"Gain",29,13,6,4,8,6
"1:51",51,"first_win","336",TRUE,"left",0,"4","first_time",0.6125,"cd1","General","Restaurant",31,"F",2.5,0.43,0,3,1,"Gain",29,13,6,4,8,6
"1:52",52,"first_win","457",TRUE,"left",1,"4","first_time",0.6375,"cd1","General","Restaurant",31,"F",2.5,0.43,0,3,0,"Gain",29,13,6,4,8,6
"1:53",53,"first_win","334",FALSE,"right",0.5,"3","first_time",0.65,"cd1","General","Restaurant",31,"F",2.5,0.43,0,3,1,"Gain",29,13,6,4,8,6
"1:54",54,"first_win","563",TRUE,"left",0,"4","first_time",0.65,"cd1","General","Restaurant",31,"F",2.5,0.43,0,3,1,"Gain",29,13,6,4,8,6
"1:55",55,"first_win","303",TRUE,"left",1,"4","first_time",0.675,"cd1","General","Restaurant",31,"F",2.5,0.43,0,3,0,"Gain",29,13,6,4,8,6
"1:56",56,"first_win","450",FALSE,"right",0.5,"3","first_time",0.6875,"cd1","General","Restaurant",31,"F",2.5,0.43,0,3,1,"Gain",29,13,6,4,8,6
"1:57",57,"first_win","381",FALSE,"right",0.5,"3","first_time",0.7,"cd1","General","Restaurant",31,"F",2.5,0.43,0,3,1,"Gain",29,13,6,4,8,6
"1:58",58,"first_win","583",FALSE,"right",0.5,"3","first_time",0.7125,"cd1","General","Restaurant",31,"F",2.5,0.43,0,3,1,"Gain",29,13,6,4,8,6
"1:59",59,"first_win","243",TRUE,"left",0,"4","first_time",0.7125,"cd1","General","Restaurant",31,"F",2.5,0.43,0,3,1,"Gain",29,13,6,4,8,6
"1:60",60,"first_win","267",TRUE,"left",0,"4","first_time",0.7125,"cd1","General","Restaurant",31,"F",2.5,0.43,0,3,0,"Gain",29,13,6,4,8,6
"1:61",61,"first_win","2441",TRUE,"left",1,"4","first_time",0.7375,"cd1","General","Restaurant",31,"F",2.5,0.43,0,4,0,"Gain",29,13,6,4,8,6
"1:62",62,"first_win","463",TRUE,"left",0,"4","first_time",0.7375,"cd1","General","Restaurant",31,"F",2.5,0.43,0,4,1,"Gain",29,13,6,4,8,6
"1:63",63,"first_win","351",FALSE,"right",0.5,"3","first_time",0.75,"cd1","General","Restaurant",31,"F",2.5,0.43,0,4,0,"Gain",29,13,6,4,8,6
"1:64",64,"first_win","711",FALSE,"right",0.5,"3","first_time",0.7625,"cd1","General","Restaurant",31,"F",2.5,0.43,0,4,0,"Gain",29,13,6,4,8,6
"1:65",65,"first_win","275",FALSE,"right",0.5,"3","first_time",0.775,"cd1","General","Restaurant",31,"F",2.5,0.43,0,4,0,"Gain",29,13,6,4,8,6
"1:66",66,"first_win","551",FALSE,"right",0.5,"3","first_time",0.7875,"cd1","General","Restaurant",31,"F",2.5,0.43,0,4,0,"Gain",29,13,6,4,8,6
"1:67",67,"first_win","275",TRUE,"left",1,"4","first_time",0.8125,"cd1","General","Restaurant",31,"F",2.5,0.43,0,4,0,"Gain",29,13,6,4,8,6
"1:68",68,"first_win","388",FALSE,"right",0.5,"3","first_time",0.825,"cd1","General","Restaurant",31,"F",2.5,0.43,0,4,1,"Gain",29,13,6,4,8,6
"1:69",69,"first_win","742",FALSE,"right",0.5,"3","first_time",0.8375,"cd1","General","Restaurant",31,"F",2.5,0.43,0,4,1,"Gain",29,13,6,4,8,6
"1:70",70,"first_win","395",FALSE,"right",0.5,"3","first_time",0.85,"cd1","General","Restaurant",31,"F",2.5,0.43,0,4,1,"Gain",29,13,6,4,8,6
"1:71",71,"first_win","496",TRUE,"left",1,"4","first_time",0.875,"cd1","General","Restaurant",31,"F",2.5,0.43,0,4,1,"Gain",29,13,6,4,8,6
"1:72",72,"first_win","400",FALSE,"right",0.5,"3","first_time",0.8875,"cd1","General","Restaurant",31,"F",2.5,0.43,0,4,1,"Gain",29,13,6,4,8,6
"1:73",73,"first_win","271",FALSE,"right",0.5,"3","first_time",0.9,"cd1","General","Restaurant",31,"F",2.5,0.43,0,4,1,"Gain",29,13,6,4,8,6
"1:74",74,"first_win","293",FALSE,"right",0.5,"3","first_time",0.9125,"cd1","General","Restaurant",31,"F",2.5,0.43,0,4,1,"Gain",29,13,6,4,8,6
"1:75",75,"first_win","368",FALSE,"right",0.5,"3","first_time",0.925,"cd1","General","Restaurant",31,"F",2.5,0.43,0,4,1,"Gain",29,13,6,4,8,6
"1:76",76,"first_win","284",TRUE,"left",1,"4","first_time",0.95,"cd1","General","Restaurant",31,"F",2.5,0.43,0,4,1,"Gain",29,13,6,4,8,6
"1:77",77,"first_win","272",FALSE,"right",0.5,"3","first_time",0.9625,"cd1","General","Restaurant",31,"F",2.5,0.43,0,4,1,"Gain",29,13,6,4,8,6
"1:78",78,"first_win","246",FALSE,"right",0.5,"3","first_time",0.975,"cd1","General","Restaurant",31,"F",2.5,0.43,0,4,1,"Gain",29,13,6,4,8,6
"1:79",79,"first_win","377",FALSE,"right",0.5,"3","first_time",0.9875,"cd1","General","Restaurant",31,"F",2.5,0.43,0,4,1,"Gain",29,13,6,4,8,6
"1:80",80,"first_win","1028",TRUE,"left",1,"4","first_time",1.0125,"cd1","General","Restaurant",31,"F",2.5,0.43,0,4,1,"Gain",29,13,6,4,8,6
"1:81",81,"first_win","294",FALSE,"right",0.5,"3","first_time",1.025,"cd1","General","Restaurant",31,"F",2.5,0.43,0,5,1,"Gain",29,13,6,4,8,6
"1:82",82,"first_win","298",FALSE,"right",0.5,"3","first_time",1.0375,"cd1","General","Restaurant",31,"F",2.5,0.43,0,5,1,"Gain",29,13,6,4,8,6
"1:83",83,"first_win","253",FALSE,"right",0.5,"3","first_time",1.05,"cd1","General","Restaurant",31,"F",2.5,0.43,0,5,1,"Gain",29,13,6,4,8,6
"1:84",84,"first_win","242",TRUE,"left",0,"4","first_time",1.05,"cd1","General","Restaurant",31,"F",2.5,0.43,0,5,1,"Gain",29,13,6,4,8,6
"1:85",85,"first_win","270",TRUE,"left",1,"4","first_time",1.075,"cd1","General","Restaurant",31,"F",2.5,0.43,0,5,0,"Gain",29,13,6,4,8,6
"1:86",86,"first_win","282",FALSE,"right",0.5,"3","first_time",1.0875,"cd1","General","Restaurant",31,"F",2.5,0.43,0,5,1,"Gain",29,13,6,4,8,6
"1:87",87,"first_win","372",FALSE,"right",0.5,"3","first_time",1.1,"cd1","General","Restaurant",31,"F",2.5,0.43,0,5,1,"Gain",29,13,6,4,8,6
"1:88",88,"first_win","394",FALSE,"right",0.5,"3","first_time",1.1125,"cd1","General","Restaurant",31,"F",2.5,0.43,0,5,1,"Gain",29,13,6,4,8,6
"1:89",89,"first_win","628",FALSE,"right",0.5,"3","first_time",1.125,"cd1","General","Restaurant",31,"F",2.5,0.43,0,5,1,"Gain",29,13,6,4,8,6
"1:90",90,"first_win","529",TRUE,"left",1,"4","first_time",1.15,"cd1","General","Restaurant",31,"F",2.5,0.43,0,5,1,"Gain",29,13,6,4,8,6
"1:91",91,"first_win","569",FALSE,"right",0.5,"3","first_time",1.1625,"cd1","General","Restaurant",31,"F",2.5,0.43,0,5,1,"Gain",29,13,6,4,8,6
"1:92",92,"first_win","342",FALSE,"right",0.5,"3","first_time",1.175,"cd1","General","Restaurant",31,"F",2.5,0.43,0,5,1,"Gain",29,13,6,4,8,6
"1:93",93,"first_win","308",FALSE,"right",0.5,"3","first_time",1.1875,"cd1","General","Restaurant",31,"F",2.5,0.43,0,5,1,"Gain",29,13,6,4,8,6
"1:94",94,"first_win","193",FALSE,"right",0.5,"3","first_time",1.2,"cd1","General","Restaurant",31,"F",2.5,0.43,0,5,1,"Gain",29,13,6,4,8,6
"1:95",95,"first_win","296",TRUE,"left",0,"4","first_time",1.2,"cd1","General","Restaurant",31,"F",2.5,0.43,0,5,1,"Gain",29,13,6,4,8,6
"1:96",96,"first_win","170",TRUE,"left",0,"4","first_time",1.2,"cd1","General","Restaurant",31,"F",2.5,0.43,0,5,0,"Gain",29,13,6,4,8,6
"1:97",97,"first_win","272",TRUE,"left",0,"4","first_time",1.2,"cd1","General","Restaurant",31,"F",2.5,0.43,0,5,0,"Gain",29,13,6,4,8,6
"1:98",98,"first_win","413",TRUE,"left",0,"4","first_time",1.2,"cd1","General","Restaurant",31,"F",2.5,0.43,0,5,0,"Gain",29,13,6,4,8,6
"1:99",99,"first_win","486",TRUE,"left",0,"4","first_time",1.2,"cd1","General","Restaurant",31,"F",2.5,0.43,0,5,0,"Gain",29,13,6,4,8,6
"1:100",100,"first_win","74",FALSE,"right",0.5,"3","first_time",1.2125,"cd1","General","Restaurant",31,"F",2.5,0.43,0,5,0,"Gain",29,13,6,4,8,6
"1:101",1,"first_win","3108",TRUE,"left",1,"3","first_time",0.025,"cd10","General","Hospital",20,"F",0,0.3,55,1,NA,"Gain",20,30,4,7,9,4
"1:102",2,"first_win","1479",FALSE,"right",0.5,"1","first_time",0.0375,"cd10","General","Hospital",20,"F",0,0.3,55,1,1,"Gain",20,30,4,7,9,4
"1:103",3,"first_win","1185",FALSE,"right",0.5,"1","first_time",0.05,"cd10","General","Hospital",20,"F",0,0.3,55,1,1,"Gain",20,30,4,7,9,4
"1:104",4,"first_win","627",TRUE,"left",0,"3","first_time",0.05,"cd10","General","Hospital",20,"F",0,0.3,55,1,1,"Gain",20,30,4,7,9,4
"1:105",5,"first_win","1044",TRUE,"left",1,"3","first_time",0.075,"cd10","General","Hospital",20,"F",0,0.3,55,1,0,"Gain",20,30,4,7,9,4
"1:106",6,"first_win","786",FALSE,"right",0.5,"1","first_time",0.0875,"cd10","General","Hospital",20,"F",0,0.3,55,1,1,"Gain",20,30,4,7,9,4
"1:107",7,"first_win","551",FALSE,"right",0.5,"1","first_time",0.1,"cd10","General","Hospital",20,"F",0,0.3,55,1,1,"Gain",20,30,4,7,9,4
"1:108",8,"first_win","470",TRUE,"left",0,"3","first_time",0.1,"cd10","General","Hospital",20,"F",0,0.3,55,1,1,"Gain",20,30,4,7,9,4
"1:109",9,"first_win","261",FALSE,"right",0.5,"1","first_time",0.1125,"cd10","General","Hospital",20,"F",0,0.3,55,1,0,"Gain",20,30,4,7,9,4
"1:110",10,"first_win","348",FALSE,"right",0.5,"1","first_time",0.125,"cd10","General","Hospital",20,"F",0,0.3,55,1,0,"Gain",20,30,4,7,9,4
"1:111",11,"first_win","370",FALSE,"right",0.5,"1","first_time",0.1375,"cd10","General","Hospital",20,"F",0,0.3,55,1,0,"Gain",20,30,4,7,9,4
"1:112",12,"first_win","336",TRUE,"left",0,"3","first_time",0.1375,"cd10","General","Hospital",20,"F",0,0.3,55,1,0,"Gain",20,30,4,7,9,4
"1:113",13,"first_win","958",TRUE,"left",0,"3","first_time",0.1375,"cd10","General","Hospital",20,"F",0,0.3,55,1,0,"Gain",20,30,4,7,9,4
"1:114",14,"first_win","307",FALSE,"right",0.5,"1","first_time",0.15,"cd10","General","Hospital",20,"F",0,0.3,55,1,0,"Gain",20,30,4,7,9,4
"1:115",15,"first_win","439",TRUE,"left",1,"3","first_time",0.175,"cd10","General","Hospital",20,"F",0,0.3,55,1,0,"Gain",20,30,4,7,9,4
"1:116",16,"first_win","445",FALSE,"right",0.5,"1","first_time",0.1875,"cd10","General","Hospital",20,"F",0,0.3,55,1,1,"Gain",20,30,4,7,9,4
"1:117",17,"first_win","556",FALSE,"right",0.5,"1","first_time",0.2,"cd10","General","Hospital",20,"F",0,0.3,55,1,1,"Gain",20,30,4,7,9,4
"1:118",18,"first_win","1025",FALSE,"right",0.5,"1","first_time",0.2125,"cd10","General","Hospital",20,"F",0,0.3,55,1,1,"Gain",20,30,4,7,9,4
"1:119",19,"first_win","265",FALSE,"right",0.5,"1","first_time",0.225,"cd10","General","Hospital",20,"F",0,0.3,55,1,1,"Gain",20,30,4,7,9,4
"1:120",20,"first_win","444",TRUE,"left",0,"3","first_time",0.225,"cd10","General","Hospital",20,"F",0,0.3,55,1,1,"Gain",20,30,4,7,9,4
"1:121",21,"first_win","360",TRUE,"left",1,"3","first_time",0.25,"cd10","General","Hospital",20,"F",0,0.3,55,2,0,"Gain",20,30,4,7,9,4
"1:122",22,"first_win","1608",TRUE,"left",0,"3","first_time",0.25,"cd10","General","Hospital",20,"F",0,0.3,55,2,1,"Gain",20,30,4,7,9,4
"1:123",23,"first_win","310",TRUE,"left",1,"3","first_time",0.275,"cd10","General","Hospital",20,"F",0,0.3,55,2,0,"Gain",20,30,4,7,9,4
"1:124",24,"first_win","794",TRUE,"left",1,"3","first_time",0.3,"cd10","General","Hospital",20,"F",0,0.3,55,2,1,"Gain",20,30,4,7,9,4
"1:125",25,"first_win","886",FALSE,"right",0.5,"1","first_time",0.3125,"cd10","General","Hospital",20,"F",0,0.3,55,2,1,"Gain",20,30,4,7,9,4
"1:126",26,"first_win","309",FALSE,"right",0.5,"1","first_time",0.325,"cd10","General","Hospital",20,"F",0,0.3,55,2,1,"Gain",20,30,4,7,9,4
"1:127",27,"first_win","633",TRUE,"left",1,"3","first_time",0.35,"cd10","General","Hospital",20,"F",0,0.3,55,2,1,"Gain",20,30,4,7,9,4
"1:128",28,"first_win","362",FALSE,"right",0.5,"1","first_time",0.3625,"cd10","General","Hospital",20,"F",0,0.3,55,2,1,"Gain",20,30,4,7,9,4
"1:129",29,"first_win","393",TRUE,"left",0,"3","first_time",0.3625,"cd10","General","Hospital",20,"F",0,0.3,55,2,1,"Gain",20,30,4,7,9,4
"1:130",30,"first_win","327",TRUE,"left",0,"3","first_time",0.3625,"cd10","General","Hospital",20,"F",0,0.3,55,2,0,"Gain",20,30,4,7,9,4
"1:131",31,"first_win","250",TRUE,"left",0,"3","first_time",0.3625,"cd10","General","Hospital",20,"F",0,0.3,55,2,0,"Gain",20,30,4,7,9,4
"1:132",32,"first_win","382",TRUE,"left",0,"3","first_time",0.3625,"cd10","General","Hospital",20,"F",0,0.3,55,2,0,"Gain",20,30,4,7,9,4
"1:133",33,"first_win","329",TRUE,"left",0,"3","first_time",0.3625,"cd10","General","Hospital",20,"F",0,0.3,55,2,0,"Gain",20,30,4,7,9,4
"1:134",34,"first_win","503",FALSE,"right",0.5,"1","first_time",0.375,"cd10","General","Hospital",20,"F",0,0.3,55,2,0,"Gain",20,30,4,7,9,4
"1:135",35,"first_win","529",FALSE,"right",0.5,"1","first_time",0.3875,"cd10","General","Hospital",20,"F",0,0.3,55,2,0,"Gain",20,30,4,7,9,4
"1:136",36,"first_win","438",FALSE,"right",0.5,"1","first_time",0.4,"cd10","General","Hospital",20,"F",0,0.3,55,2,0,"Gain",20,30,4,7,9,4
"1:137",37,"first_win","352",TRUE,"left",0,"3","first_time",0.4,"cd10","General","Hospital",20,"F",0,0.3,55,2,0,"Gain",20,30,4,7,9,4
"1:138",38,"first_win","342",FALSE,"right",0.5,"1","first_time",0.4125,"cd10","General","Hospital",20,"F",0,0.3,55,2,0,"Gain",20,30,4,7,9,4
"1:139",39,"first_win","267",FALSE,"right",0.5,"1","first_time",0.425,"cd10","General","Hospital",20,"F",0,0.3,55,2,0,"Gain",20,30,4,7,9,4
"1:140",40,"first_win","402",FALSE,"right",0.5,"1","first_time",0.4375,"cd10","General","Hospital",20,"F",0,0.3,55,2,0,"Gain",20,30,4,7,9,4
"1:141",41,"first_win","916",FALSE,"right",0.5,"1","first_time",0.45,"cd10","General","Hospital",20,"F",0,0.3,55,3,0,"Gain",20,30,4,7,9,4
"1:142",42,"first_win","324",FALSE,"right",0.5,"1","first_time",0.4625,"cd10","General","Hospital",20,"F",0,0.3,55,3,0,"Gain",20,30,4,7,9,4
"1:143",43,"first_win","235",FALSE,"right",0.5,"1","first_time",0.475,"cd10","General","Hospital",20,"F",0,0.3,55,3,0,"Gain",20,30,4,7,9,4
"1:144",44,"first_win","314",FALSE,"right",0.5,"1","first_time",0.4875,"cd10","General","Hospital",20,"F",0,0.3,55,3,0,"Gain",20,30,4,7,9,4
"1:145",45,"first_win","233",FALSE,"right",0.5,"1","first_time",0.5,"cd10","General","Hospital",20,"F",0,0.3,55,3,0,"Gain",20,30,4,7,9,4
"1:146",46,"first_win","464",TRUE,"left",0,"3","first_time",0.5,"cd10","General","Hospital",20,"F",0,0.3,55,3,0,"Gain",20,30,4,7,9,4
"1:147",47,"first_win","437",TRUE,"left",0,"3","first_time",0.5,"cd10","General","Hospital",20,"F",0,0.3,55,3,0,"Gain",20,30,4,7,9,4
"1:148",48,"first_win","227",FALSE,"right",0.5,"1","first_time",0.5125,"cd10","General","Hospital",20,"F",0,0.3,55,3,0,"Gain",20,30,4,7,9,4
"1:149",49,"first_win","303",FALSE,"right",0.5,"1","first_time",0.525,"cd10","General","Hospital",20,"F",0,0.3,55,3,0,"Gain",20,30,4,7,9,4
"1:150",50,"first_win","378",FALSE,"right",0.5,"1","first_time",0.5375,"cd10","General","Hospital",20,"F",0,0.3,55,3,0,"Gain",20,30,4,7,9,4
"1:151",51,"first_win","262",FALSE,"right",0.5,"1","first_time",0.55,"cd10","General","Hospital",20,"F",0,0.3,55,3,0,"Gain",20,30,4,7,9,4
"1:152",52,"first_win","251",FALSE,"right",0.5,"1","first_time",0.5625,"cd10","General","Hospital",20,"F",0,0.3,55,3,0,"Gain",20,30,4,7,9,4
"1:153",53,"first_win","914",TRUE,"left",1,"3","first_time",0.5875,"cd10","General","Hospital",20,"F",0,0.3,55,3,0,"Gain",20,30,4,7,9,4
"1:154",54,"first_win","529",FALSE,"right",0.5,"1","first_time",0.6,"cd10","General","Hospital",20,"F",0,0.3,55,3,1,"Gain",20,30,4,7,9,4
"1:155",55,"first_win","830",FALSE,"right",0.5,"1","first_time",0.6125,"cd10","General","Hospital",20,"F",0,0.3,55,3,1,"Gain",20,30,4,7,9,4
"1:156",56,"first_win","488",FALSE,"right",0.5,"1","first_time",0.625,"cd10","General","Hospital",20,"F",0,0.3,55,3,1,"Gain",20,30,4,7,9,4
"1:157",57,"first_win","342",FALSE,"right",0.5,"1","first_time",0.6375,"cd10","General","Hospital",20,"F",0,0.3,55,3,1,"Gain",20,30,4,7,9,4
"1:158",58,"first_win","92",FALSE,"right",0.5,"1","first_time",0.65,"cd10","General","Hospital",20,"F",0,0.3,55,3,1,"Gain",20,30,4,7,9,4
"1:159",59,"first_win","515",FALSE,"right",0.5,"1","first_time",0.6625,"cd10","General","Hospital",20,"F",0,0.3,55,3,1,"Gain",20,30,4,7,9,4
"1:160",60,"first_win","26",FALSE,"right",0.5,"1","first_time",0.675,"cd10","General","Hospital",20,"F",0,0.3,55,3,1,"Gain",20,30,4,7,9,4
"1:161",61,"first_win","3087",FALSE,"right",0.5,"1","first_time",0.6875,"cd10","General","Hospital",20,"F",0,0.3,55,4,1,"Gain",20,30,4,7,9,4
"1:162",62,"first_win","12",FALSE,"right",0.5,"1","first_time",0.7,"cd10","General","Hospital",20,"F",0,0.3,55,4,1,"Gain",20,30,4,7,9,4
"1:163",63,"first_win","978",FALSE,"right",0.5,"1","first_time",0.7125,"cd10","General","Hospital",20,"F",0,0.3,55,4,1,"Gain",20,30,4,7,9,4
"1:164",64,"first_win","288",FALSE,"right",0.5,"1","first_time",0.725,"cd10","General","Hospital",20,"F",0,0.3,55,4,1,"Gain",20,30,4,7,9,4
"1:165",65,"first_win","2117",TRUE,"left",0,"3","first_time",0.725,"cd10","General","Hospital",20,"F",0,0.3,55,4,1,"Gain",20,30,4,7,9,4
"1:166",66,"first_win","363",TRUE,"left",1,"3","first_time",0.75,"cd10","General","Hospital",20,"F",0,0.3,55,4,0,"Gain",20,30,4,7,9,4
"1:167",67,"first_win","409",FALSE,"right",0.5,"1","first_time",0.7625,"cd10","General","Hospital",20,"F",0,0.3,55,4,1,"Gain",20,30,4,7,9,4
"1:168",68,"first_win","314",FALSE,"right",0.5,"1","first_time",0.775,"cd10","General","Hospital",20,"F",0,0.3,55,4,1,"Gain",20,30,4,7,9,4
"1:169",69,"first_win","535",FALSE,"right",0.5,"1","first_time",0.7875,"cd10","General","Hospital",20,"F",0,0.3,55,4,1,"Gain",20,30,4,7,9,4
"1:170",70,"first_win","365",FALSE,"right",0.5,"1","first_time",0.8,"cd10","General","Hospital",20,"F",0,0.3,55,4,1,"Gain",20,30,4,7,9,4
"1:171",71,"first_win","739",FALSE,"right",0.5,"1","first_time",0.8125,"cd10","General","Hospital",20,"F",0,0.3,55,4,1,"Gain",20,30,4,7,9,4
"1:172",72,"first_win","278",FALSE,"right",0.5,"1","first_time",0.825,"cd10","General","Hospital",20,"F",0,0.3,55,4,1,"Gain",20,30,4,7,9,4
"1:173",73,"first_win","691",FALSE,"right",0.5,"1","first_time",0.8375,"cd10","General","Hospital",20,"F",0,0.3,55,4,1,"Gain",20,30,4,7,9,4
"1:174",74,"first_win","531",FALSE,"right",0.5,"1","first_time",0.85,"cd10","General","Hospital",20,"F",0,0.3,55,4,1,"Gain",20,30,4,7,9,4
"1:175",75,"first_win","814",FALSE,"right",0.5,"1","first_time",0.8625,"cd10","General","Hospital",20,"F",0,0.3,55,4,1,"Gain",20,30,4,7,9,4
"1:176",76,"first_win","319",FALSE,"right",0.5,"1","first_time",0.875,"cd10","General","Hospital",20,"F",0,0.3,55,4,1,"Gain",20,30,4,7,9,4
"1:177",77,"first_win","375",FALSE,"right",0.5,"1","first_time",0.8875,"cd10","General","Hospital",20,"F",0,0.3,55,4,1,"Gain",20,30,4,7,9,4
"1:178",78,"first_win","396",FALSE,"right",0.5,"1","first_time",0.9,"cd10","General","Hospital",20,"F",0,0.3,55,4,1,"Gain",20,30,4,7,9,4
"1:179",79,"first_win","270",FALSE,"right",0.5,"1","first_time",0.9125,"cd10","General","Hospital",20,"F",0,0.3,55,4,1,"Gain",20,30,4,7,9,4
"1:180",80,"first_win","312",FALSE,"right",0.5,"1","first_time",0.925,"cd10","General","Hospital",20,"F",0,0.3,55,4,1,"Gain",20,30,4,7,9,4
"1:181",81,"first_win","655",TRUE,"left",1,"3","first_time",0.95,"cd10","General","Hospital",20,"F",0,0.3,55,5,1,"Gain",20,30,4,7,9,4
"1:182",82,"first_win","421",FALSE,"right",0.5,"1","first_time",0.9625,"cd10","General","Hospital",20,"F",0,0.3,55,5,1,"Gain",20,30,4,7,9,4
"1:183",83,"first_win","427",FALSE,"right",0.5,"1","first_time",0.975,"cd10","General","Hospital",20,"F",0,0.3,55,5,1,"Gain",20,30,4,7,9,4
"1:184",84,"first_win","512",FALSE,"right",0.5,"1","first_time",0.9875,"cd10","General","Hospital",20,"F",0,0.3,55,5,1,"Gain",20,30,4,7,9,4
"1:185",85,"first_win","326",FALSE,"right",0.5,"1","first_time",1,"cd10","General","Hospital",20,"F",0,0.3,55,5,1,"Gain",20,30,4,7,9,4
"1:186",86,"first_win","350",FALSE,"right",0.5,"1","first_time",1.0125,"cd10","General","Hospital",20,"F",0,0.3,55,5,1,"Gain",20,30,4,7,9,4
"1:187",87,"first_win","596",TRUE,"left",1,"3","first_time",1.0375,"cd10","General","Hospital",20,"F",0,0.3,55,5,1,"Gain",20,30,4,7,9,4
"1:188",88,"first_win","343",FALSE,"right",0.5,"1","first_time",1.05,"cd10","General","Hospital",20,"F",0,0.3,55,5,1,"Gain",20,30,4,7,9,4
"1:189",89,"first_win","316",FALSE,"right",0.5,"1","first_time",1.0625,"cd10","General","Hospital",20,"F",0,0.3,55,5,1,"Gain",20,30,4,7,9,4
"1:190",90,"first_win","395",FALSE,"right",0.5,"1","first_time",1.075,"cd10","General","Hospital",20,"F",0,0.3,55,5,1,"Gain",20,30,4,7,9,4
"1:191",91,"first_win","311",FALSE,"right",0.5,"1","first_time",1.0875,"cd10","General","Hospital",20,"F",0,0.3,55,5,1,"Gain",20,30,4,7,9,4
"1:192",92,"first_win","316",FALSE,"right",0.5,"1","first_time",1.1,"cd10","General","Hospital",20,"F",0,0.3,55,5,1,"Gain",20,30,4,7,9,4
"1:193",93,"first_win","596",TRUE,"left",0,"3","first_time",1.1,"cd10","General","Hospital",20,"F",0,0.3,55,5,1,"Gain",20,30,4,7,9,4
"1:194",94,"first_win","483",TRUE,"left",0,"3","first_time",1.1,"cd10","General","Hospital",20,"F",0,0.3,55,5,0,"Gain",20,30,4,7,9,4
"1:195",95,"first_win","863",TRUE,"left",0,"3","first_time",1.1,"cd10","General","Hospital",20,"F",0,0.3,55,5,0,"Gain",20,30,4,7,9,4
"1:196",96,"first_win","428",TRUE,"left",0,"3","first_time",1.1,"cd10","General","Hospital",20,"F",0,0.3,55,5,0,"Gain",20,30,4,7,9,4
"1:197",97,"first_win","302",FALSE,"right",0.5,"1","first_time",1.1125,"cd10","General","Hospital",20,"F",0,0.3,55,5,0,"Gain",20,30,4,7,9,4
"1:198",98,"first_win","364",FALSE,"right",0.5,"1","first_time",1.125,"cd10","General","Hospital",20,"F",0,0.3,55,5,0,"Gain",20,30,4,7,9,4
"1:199",99,"first_win","744",FALSE,"right",0.5,"1","first_time",1.1375,"cd10","General","Hospital",20,"F",0,0.3,55,5,0,"Gain",20,30,4,7,9,4
"1:200",100,"first_win","219",FALSE,"right",0.5,"1","first_time",1.15,"cd10","General","Hospital",20,"F",0,0.3,55,5,0,"Gain",20,30,4,7,9,4
"1:201",1,"first_win","-1",NA,NA,-1,NA,"first_time",0,"cd11","General","Hospital",22,"F",2.5,0.0909090909090909,50,1,NA,"Gain",29,20,4.5,4.5,7,4.5
"1:202",2,"first_win","800",FALSE,"left",0.5,"3","first_time",0.0125,"cd11","General","Hospital",22,"F",2.5,0.0909090909090909,50,1,NA,"Gain",29,20,4.5,4.5,7,4.5
"1:203",3,"first_win","2069",FALSE,"left",0.5,"3","first_time",0.025,"cd11","General","Hospital",22,"F",2.5,0.0909090909090909,50,1,NA,"Gain",29,20,4.5,4.5,7,4.5
"1:204",4,"first_win","2108",FALSE,"left",0.5,"3","first_time",0.0375,"cd11","General","Hospital",22,"F",2.5,0.0909090909090909,50,1,NA,"Gain",29,20,4.5,4.5,7,4.5
"1:205",5,"first_win","1912",FALSE,"left",0.5,"3","first_time",0.05,"cd11","General","Hospital",22,"F",2.5,0.0909090909090909,50,1,NA,"Gain",29,20,4.5,4.5,7,4.5
"1:206",6,"first_win","2490",FALSE,"left",0.5,"3","first_time",0.0625,"cd11","General","Hospital",22,"F",2.5,0.0909090909090909,50,1,NA,"Gain",29,20,4.5,4.5,7,4.5
"1:207",7,"first_win","1722",FALSE,"left",0.5,"3","first_time",0.075,"cd11","General","Hospital",22,"F",2.5,0.0909090909090909,50,1,NA,"Gain",29,20,4.5,4.5,7,4.5
"1:208",8,"first_win","1609",FALSE,"left",0.5,"3","first_time",0.0875,"cd11","General","Hospital",22,"F",2.5,0.0909090909090909,50,1,NA,"Gain",29,20,4.5,4.5,7,4.5
"1:209",9,"first_win","1842",FALSE,"left",0.5,"3","first_time",0.1,"cd11","General","Hospital",22,"F",2.5,0.0909090909090909,50,1,NA,"Gain",29,20,4.5,4.5,7,4.5
"1:210",10,"first_win","1731",FALSE,"left",0.5,"3","first_time",0.1125,"cd11","General","Hospital",22,"F",2.5,0.0909090909090909,50,1,NA,"Gain",29,20,4.5,4.5,7,4.5
"1:211",11,"first_win","2963",FALSE,"left",0.5,"3","first_time",0.125,"cd11","General","Hospital",22,"F",2.5,0.0909090909090909,50,1,NA,"Gain",29,20,4.5,4.5,7,4.5
"1:212",12,"first_win","1950",FALSE,"left",0.5,"3","first_time",0.1375,"cd11","General","Hospital",22,"F",2.5,0.0909090909090909,50,1,NA,"Gain",29,20,4.5,4.5,7,4.5
"1:213",13,"first_win","1111",FALSE,"left",0.5,"3","first_time",0.15,"cd11","General","Hospital",22,"F",2.5,0.0909090909090909,50,1,NA,"Gain",29,20,4.5,4.5,7,4.5
"1:214",14,"first_win","985",FALSE,"left",0.5,"3","first_time",0.1625,"cd11","General","Hospital",22,"F",2.5,0.0909090909090909,50,1,NA,"Gain",29,20,4.5,4.5,7,4.5
"1:215",15,"first_win","1753",FALSE,"left",0.5,"3","first_time",0.175,"cd11","General","Hospital",22,"F",2.5,0.0909090909090909,50,1,NA,"Gain",29,20,4.5,4.5,7,4.5
"1:216",16,"first_win","1983",TRUE,"right",1,"2","first_time",0.2,"cd11","General","Hospital",22,"F",2.5,0.0909090909090909,50,1,NA,"Gain",29,20,4.5,4.5,7,4.5
"1:217",17,"first_win","2647",TRUE,"right",0,"2","first_time",0.2,"cd11","General","Hospital",22,"F",2.5,0.0909090909090909,50,1,1,"Gain",29,20,4.5,4.5,7,4.5
"1:218",18,"first_win","700",FALSE,"left",0.5,"3","first_time",0.2125,"cd11","General","Hospital",22,"F",2.5,0.0909090909090909,50,1,0,"Gain",29,20,4.5,4.5,7,4.5
"1:219",19,"first_win","345",FALSE,"left",0.5,"3","first_time",0.225,"cd11","General","Hospital",22,"F",2.5,0.0909090909090909,50,1,0,"Gain",29,20,4.5,4.5,7,4.5
"1:220",20,"first_win","484",FALSE,"left",0.5,"3","first_time",0.2375,"cd11","General","Hospital",22,"F",2.5,0.0909090909090909,50,1,0,"Gain",29,20,4.5,4.5,7,4.5
"1:221",21,"first_win","335",FALSE,"left",0.5,"3","first_time",0.25,"cd11","General","Hospital",22,"F",2.5,0.0909090909090909,50,2,0,"Gain",29,20,4.5,4.5,7,4.5
"1:222",22,"first_win","370",FALSE,"left",0.5,"3","first_time",0.2625,"cd11","General","Hospital",22,"F",2.5,0.0909090909090909,50,2,0,"Gain",29,20,4.5,4.5,7,4.5
"1:223",23,"first_win","318",FALSE,"left",0.5,"3","first_time",0.275,"cd11","General","Hospital",22,"F",2.5,0.0909090909090909,50,2,0,"Gain",29,20,4.5,4.5,7,4.5
"1:224",24,"first_win","397",FALSE,"left",0.5,"3","first_time",0.2875,"cd11","General","Hospital",22,"F",2.5,0.0909090909090909,50,2,0,"Gain",29,20,4.5,4.5,7,4.5
"1:225",25,"first_win","350",FALSE,"left",0.5,"3","first_time",0.3,"cd11","General","Hospital",22,"F",2.5,0.0909090909090909,50,2,0,"Gain",29,20,4.5,4.5,7,4.5
"1:226",26,"first_win","314",FALSE,"left",0.5,"3","first_time",0.3125,"cd11","General","Hospital",22,"F",2.5,0.0909090909090909,50,2,0,"Gain",29,20,4.5,4.5,7,4.5
"1:227",27,"first_win","320",FALSE,"left",0.5,"3","first_time",0.325,"cd11","General","Hospital",22,"F",2.5,0.0909090909090909,50,2,0,"Gain",29,20,4.5,4.5,7,4.5
"1:228",28,"first_win","364",FALSE,"left",0.5,"3","first_time",0.3375,"cd11","General","Hospital",22,"F",2.5,0.0909090909090909,50,2,0,"Gain",29,20,4.5,4.5,7,4.5
"1:229",29,"first_win","386",FALSE,"left",0.5,"3","first_time",0.35,"cd11","General","Hospital",22,"F",2.5,0.0909090909090909,50,2,0,"Gain",29,20,4.5,4.5,7,4.5
"1:230",30,"first_win","329",FALSE,"left",0.5,"3","first_time",0.3625,"cd11","General","Hospital",22,"F",2.5,0.0909090909090909,50,2,0,"Gain",29,20,4.5,4.5,7,4.5
"1:231",31,"first_win","360",FALSE,"left",0.5,"3","first_time",0.375,"cd11","General","Hospital",22,"F",2.5,0.0909090909090909,50,2,0,"Gain",29,20,4.5,4.5,7,4.5
"1:232",32,"first_win","374",FALSE,"left",0.5,"3","first_time",0.3875,"cd11","General","Hospital",22,"F",2.5,0.0909090909090909,50,2,0,"Gain",29,20,4.5,4.5,7,4.5
"1:233",33,"first_win","200",FALSE,"left",0.5,"3","first_time",0.4,"cd11","General","Hospital",22,"F",2.5,0.0909090909090909,50,2,0,"Gain",29,20,4.5,4.5,7,4.5
"1:234",34,"first_win","338",FALSE,"left",0.5,"3","first_time",0.4125,"cd11","General","Hospital",22,"F",2.5,0.0909090909090909,50,2,0,"Gain",29,20,4.5,4.5,7,4.5
"1:235",35,"first_win","655",TRUE,"right",1,"2","first_time",0.4375,"cd11","General","Hospital",22,"F",2.5,0.0909090909090909,50,2,0,"Gain",29,20,4.5,4.5,7,4.5
"1:236",36,"first_win","444",FALSE,"left",0.5,"3","first_time",0.45,"cd11","General","Hospital",22,"F",2.5,0.0909090909090909,50,2,1,"Gain",29,20,4.5,4.5,7,4.5
"1:237",37,"first_win","407",FALSE,"left",0.5,"3","first_time",0.4625,"cd11","General","Hospital",22,"F",2.5,0.0909090909090909,50,2,1,"Gain",29,20,4.5,4.5,7,4.5
"1:238",38,"first_win","363",FALSE,"left",0.5,"3","first_time",0.475,"cd11","General","Hospital",22,"F",2.5,0.0909090909090909,50,2,1,"Gain",29,20,4.5,4.5,7,4.5
"1:239",39,"first_win","381",FALSE,"left",0.5,"3","first_time",0.4875,"cd11","General","Hospital",22,"F",2.5,0.0909090909090909,50,2,1,"Gain",29,20,4.5,4.5,7,4.5
"1:240",40,"first_win","318",FALSE,"left",0.5,"3","first_time",0.5,"cd11","General","Hospital",22,"F",2.5,0.0909090909090909,50,2,1,"Gain",29,20,4.5,4.5,7,4.5
"1:241",41,"first_win","294",FALSE,"left",0.5,"3","first_time",0.5125,"cd11","General","Hospital",22,"F",2.5,0.0909090909090909,50,3,1,"Gain",29,20,4.5,4.5,7,4.5
"1:242",42,"first_win","294",FALSE,"left",0.5,"3","first_time",0.525,"cd11","General","Hospital",22,"F",2.5,0.0909090909090909,50,3,1,"Gain",29,20,4.5,4.5,7,4.5
"1:243",43,"first_win","325",FALSE,"left",0.5,"3","first_time",0.5375,"cd11","General","Hospital",22,"F",2.5,0.0909090909090909,50,3,1,"Gain",29,20,4.5,4.5,7,4.5
"1:244",44,"first_win","295",FALSE,"left",0.5,"3","first_time",0.55,"cd11","General","Hospital",22,"F",2.5,0.0909090909090909,50,3,1,"Gain",29,20,4.5,4.5,7,4.5
"1:245",45,"first_win","298",FALSE,"left",0.5,"3","first_time",0.5625,"cd11","General","Hospital",22,"F",2.5,0.0909090909090909,50,3,1,"Gain",29,20,4.5,4.5,7,4.5
"1:246",46,"first_win","357",FALSE,"left",0.5,"3","first_time",0.575,"cd11","General","Hospital",22,"F",2.5,0.0909090909090909,50,3,1,"Gain",29,20,4.5,4.5,7,4.5
"1:247",47,"first_win","335",FALSE,"left",0.5,"3","first_time",0.5875,"cd11","General","Hospital",22,"F",2.5,0.0909090909090909,50,3,1,"Gain",29,20,4.5,4.5,7,4.5
"1:248",48,"first_win","481",FALSE,"left",0.5,"3","first_time",0.6,"cd11","General","Hospital",22,"F",2.5,0.0909090909090909,50,3,1,"Gain",29,20,4.5,4.5,7,4.5
"1:249",49,"first_win","628",FALSE,"left",0.5,"3","first_time",0.6125,"cd11","General","Hospital",22,"F",2.5,0.0909090909090909,50,3,1,"Gain",29,20,4.5,4.5,7,4.5
"1:250",50,"first_win","440",TRUE,"right",0,"2","first_time",0.6125,"cd11","General","Hospital",22,"F",2.5,0.0909090909090909,50,3,1,"Gain",29,20,4.5,4.5,7,4.5
"1:251",51,"first_win","474",FALSE,"left",0.5,"3","first_time",0.625,"cd11","General","Hospital",22,"F",2.5,0.0909090909090909,50,3,0,"Gain",29,20,4.5,4.5,7,4.5
"1:252",52,"first_win","406",FALSE,"left",0.5,"3","first_time",0.6375,"cd11","General","Hospital",22,"F",2.5,0.0909090909090909,50,3,0,"Gain",29,20,4.5,4.5,7,4.5
"1:253",53,"first_win","339",FALSE,"left",0.5,"3","first_time",0.65,"cd11","General","Hospital",22,"F",2.5,0.0909090909090909,50,3,0,"Gain",29,20,4.5,4.5,7,4.5
"1:254",54,"first_win","378",FALSE,"left",0.5,"3","first_time",0.6625,"cd11","General","Hospital",22,"F",2.5,0.0909090909090909,50,3,0,"Gain",29,20,4.5,4.5,7,4.5
"1:255",55,"first_win","361",FALSE,"left",0.5,"3","first_time",0.675,"cd11","General","Hospital",22,"F",2.5,0.0909090909090909,50,3,0,"Gain",29,20,4.5,4.5,7,4.5
"1:256",56,"first_win","291",FALSE,"left",0.5,"3","first_time",0.6875,"cd11","General","Hospital",22,"F",2.5,0.0909090909090909,50,3,0,"Gain",29,20,4.5,4.5,7,4.5
"1:257",57,"first_win","381",FALSE,"left",0.5,"3","first_time",0.7,"cd11","General","Hospital",22,"F",2.5,0.0909090909090909,50,3,0,"Gain",29,20,4.5,4.5,7,4.5
"1:258",58,"first_win","295",FALSE,"left",0.5,"3","first_time",0.7125,"cd11","General","Hospital",22,"F",2.5,0.0909090909090909,50,3,0,"Gain",29,20,4.5,4.5,7,4.5
"1:259",59,"first_win","79",FALSE,"left",0.5,"3","first_time",0.725,"cd11","General","Hospital",22,"F",2.5,0.0909090909090909,50,3,0,"Gain",29,20,4.5,4.5,7,4.5
"1:260",60,"first_win","339",FALSE,"left",0.5,"3","first_time",0.7375,"cd11","General","Hospital",22,"F",2.5,0.0909090909090909,50,3,0,"Gain",29,20,4.5,4.5,7,4.5
"1:261",61,"first_win","389",FALSE,"left",0.5,"3","first_time",0.75,"cd11","General","Hospital",22,"F",2.5,0.0909090909090909,50,4,0,"Gain",29,20,4.5,4.5,7,4.5
"1:262",62,"first_win","329",FALSE,"left",0.5,"3","first_time",0.7625,"cd11","General","Hospital",22,"F",2.5,0.0909090909090909,50,4,0,"Gain",29,20,4.5,4.5,7,4.5
"1:263",63,"first_win","339",FALSE,"left",0.5,"3","first_time",0.775,"cd11","General","Hospital",22,"F",2.5,0.0909090909090909,50,4,0,"Gain",29,20,4.5,4.5,7,4.5
"1:264",64,"first_win","356",FALSE,"left",0.5,"3","first_time",0.7875,"cd11","General","Hospital",22,"F",2.5,0.0909090909090909,50,4,0,"Gain",29,20,4.5,4.5,7,4.5
"1:265",65,"first_win","326",FALSE,"left",0.5,"3","first_time",0.8,"cd11","General","Hospital",22,"F",2.5,0.0909090909090909,50,4,0,"Gain",29,20,4.5,4.5,7,4.5
"1:266",66,"first_win","377",FALSE,"left",0.5,"3","first_time",0.8125,"cd11","General","Hospital",22,"F",2.5,0.0909090909090909,50,4,0,"Gain",29,20,4.5,4.5,7,4.5
"1:267",67,"first_win","329",FALSE,"left",0.5,"3","first_time",0.825,"cd11","General","Hospital",22,"F",2.5,0.0909090909090909,50,4,0,"Gain",29,20,4.5,4.5,7,4.5
"1:268",68,"first_win","268",FALSE,"left",0.5,"3","first_time",0.8375,"cd11","General","Hospital",22,"F",2.5,0.0909090909090909,50,4,0,"Gain",29,20,4.5,4.5,7,4.5
"1:269",69,"first_win","303",FALSE,"left",0.5,"3","first_time",0.85,"cd11","General","Hospital",22,"F",2.5,0.0909090909090909,50,4,0,"Gain",29,20,4.5,4.5,7,4.5
"1:270",70,"first_win","193",FALSE,"left",0.5,"3","first_time",0.8625,"cd11","General","Hospital",22,"F",2.5,0.0909090909090909,50,4,0,"Gain",29,20,4.5,4.5,7,4.5
"1:271",71,"first_win","363",FALSE,"left",0.5,"3","first_time",0.875,"cd11","General","Hospital",22,"F",2.5,0.0909090909090909,50,4,0,"Gain",29,20,4.5,4.5,7,4.5
"1:272",72,"first_win","260",FALSE,"left",0.5,"3","first_time",0.8875,"cd11","General","Hospital",22,"F",2.5,0.0909090909090909,50,4,0,"Gain",29,20,4.5,4.5,7,4.5
"1:273",73,"first_win","256",FALSE,"left",0.5,"3","first_time",0.9,"cd11","General","Hospital",22,"F",2.5,0.0909090909090909,50,4,0,"Gain",29,20,4.5,4.5,7,4.5
"1:274",74,"first_win","67",FALSE,"left",0.5,"3","first_time",0.9125,"cd11","General","Hospital",22,"F",2.5,0.0909090909090909,50,4,0,"Gain",29,20,4.5,4.5,7,4.5
"1:275",75,"first_win","298",TRUE,"right",1,"2","first_time",0.9375,"cd11","General","Hospital",22,"F",2.5,0.0909090909090909,50,4,0,"Gain",29,20,4.5,4.5,7,4.5
"1:276",76,"first_win","1173",TRUE,"right",1,"2","first_time",0.9625,"cd11","General","Hospital",22,"F",2.5,0.0909090909090909,50,4,1,"Gain",29,20,4.5,4.5,7,4.5
"1:277",77,"first_win","950",TRUE,"right",0,"2","first_time",0.9625,"cd11","General","Hospital",22,"F",2.5,0.0909090909090909,50,4,1,"Gain",29,20,4.5,4.5,7,4.5
"1:278",78,"first_win","329",FALSE,"left",0.5,"3","first_time",0.975,"cd11","General","Hospital",22,"F",2.5,0.0909090909090909,50,4,0,"Gain",29,20,4.5,4.5,7,4.5
"1:279",79,"first_win","237",FALSE,"left",0.5,"3","first_time",0.9875,"cd11","General","Hospital",22,"F",2.5,0.0909090909090909,50,4,0,"Gain",29,20,4.5,4.5,7,4.5
"1:280",80,"first_win","280",FALSE,"left",0.5,"3","first_time",1,"cd11","General","Hospital",22,"F",2.5,0.0909090909090909,50,4,0,"Gain",29,20,4.5,4.5,7,4.5
"1:281",81,"first_win","336",FALSE,"left",0.5,"3","first_time",1.0125,"cd11","General","Hospital",22,"F",2.5,0.0909090909090909,50,5,0,"Gain",29,20,4.5,4.5,7,4.5
"1:282",82,"first_win","427",FALSE,"left",0.5,"3","first_time",1.025,"cd11","General","Hospital",22,"F",2.5,0.0909090909090909,50,5,0,"Gain",29,20,4.5,4.5,7,4.5
"1:283",83,"first_win","307",FALSE,"left",0.5,"3","first_time",1.0375,"cd11","General","Hospital",22,"F",2.5,0.0909090909090909,50,5,0,"Gain",29,20,4.5,4.5,7,4.5
"1:284",84,"first_win","343",FALSE,"left",0.5,"3","first_time",1.05,"cd11","General","Hospital",22,"F",2.5,0.0909090909090909,50,5,0,"Gain",29,20,4.5,4.5,7,4.5
"1:285",85,"first_win","298",FALSE,"left",0.5,"3","first_time",1.0625,"cd11","General","Hospital",22,"F",2.5,0.0909090909090909,50,5,0,"Gain",29,20,4.5,4.5,7,4.5
"1:286",86,"first_win","315",FALSE,"left",0.5,"3","first_time",1.075,"cd11","General","Hospital",22,"F",2.5,0.0909090909090909,50,5,0,"Gain",29,20,4.5,4.5,7,4.5
"1:287",87,"first_win","284",FALSE,"left",0.5,"3","first_time",1.0875,"cd11","General","Hospital",22,"F",2.5,0.0909090909090909,50,5,0,"Gain",29,20,4.5,4.5,7,4.5
"1:288",88,"first_win","209",FALSE,"left",0.5,"3","first_time",1.1,"cd11","General","Hospital",22,"F",2.5,0.0909090909090909,50,5,0,"Gain",29,20,4.5,4.5,7,4.5
"1:289",89,"first_win","941",FALSE,"left",0.5,"3","first_time",1.1125,"cd11","General","Hospital",22,"F",2.5,0.0909090909090909,50,5,0,"Gain",29,20,4.5,4.5,7,4.5
"1:290",90,"first_win","833",FALSE,"left",0.5,"3","first_time",1.125,"cd11","General","Hospital",22,"F",2.5,0.0909090909090909,50,5,0,"Gain",29,20,4.5,4.5,7,4.5
"1:291",91,"first_win","403",FALSE,"left",0.5,"3","first_time",1.1375,"cd11","General","Hospital",22,"F",2.5,0.0909090909090909,50,5,0,"Gain",29,20,4.5,4.5,7,4.5
"1:292",92,"first_win","430",TRUE,"right",1,"2","first_time",1.1625,"cd11","General","Hospital",22,"F",2.5,0.0909090909090909,50,5,0,"Gain",29,20,4.5,4.5,7,4.5
"1:293",93,"first_win","354",FALSE,"left",0.5,"3","first_time",1.175,"cd11","General","Hospital",22,"F",2.5,0.0909090909090909,50,5,1,"Gain",29,20,4.5,4.5,7,4.5
"1:294",94,"first_win","320",FALSE,"left",0.5,"3","first_time",1.1875,"cd11","General","Hospital",22,"F",2.5,0.0909090909090909,50,5,1,"Gain",29,20,4.5,4.5,7,4.5
"1:295",95,"first_win","280",FALSE,"left",0.5,"3","first_time",1.2,"cd11","General","Hospital",22,"F",2.5,0.0909090909090909,50,5,1,"Gain",29,20,4.5,4.5,7,4.5
"1:296",96,"first_win","938",TRUE,"right",1,"2","first_time",1.225,"cd11","General","Hospital",22,"F",2.5,0.0909090909090909,50,5,1,"Gain",29,20,4.5,4.5,7,4.5
"1:297",97,"first_win","284",FALSE,"left",0.5,"3","first_time",1.2375,"cd11","General","Hospital",22,"F",2.5,0.0909090909090909,50,5,1,"Gain",29,20,4.5,4.5,7,4.5
"1:298",98,"first_win","172",FALSE,"left",0.5,"3","first_time",1.25,"cd11","General","Hospital",22,"F",2.5,0.0909090909090909,50,5,1,"Gain",29,20,4.5,4.5,7,4.5
"1:299",99,"first_win","0",FALSE,"left",0.5,"3","first_time",1.2625,"cd11","General","Hospital",22,"F",2.5,0.0909090909090909,50,5,1,"Gain",29,20,4.5,4.5,7,4.5
"1:300",100,"first_win","383",FALSE,"left",0.5,"3","first_time",1.275,"cd11","General","Hospital",22,"F",2.5,0.0909090909090909,50,5,1,"Gain",29,20,4.5,4.5,7,4.5
"1:301",1,"first_win","1432",FALSE,"right",0.5,"1","first_time",0.0125,"cd12","Episodic","Restaurant",24,"M",2.5,0.61,40,1,NA,"Gain",30,16,5,6,9,5
"1:302",2,"first_win","1338",FALSE,"right",0.5,"1","first_time",0.025,"cd12","Episodic","Restaurant",24,"M",2.5,0.61,40,1,NA,"Gain",30,16,5,6,9,5
"1:303",3,"first_win","677",TRUE,"left",1,"4","first_time",0.05,"cd12","Episodic","Restaurant",24,"M",2.5,0.61,40,1,NA,"Gain",30,16,5,6,9,5
"1:304",4,"first_win","1020",FALSE,"right",0.5,"1","first_time",0.0625,"cd12","Episodic","Restaurant",24,"M",2.5,0.61,40,1,1,"Gain",30,16,5,6,9,5
"1:305",5,"first_win","723",FALSE,"right",0.5,"1","first_time",0.075,"cd12","Episodic","Restaurant",24,"M",2.5,0.61,40,1,1,"Gain",30,16,5,6,9,5
"1:306",6,"first_win","316",TRUE,"left",0,"4","first_time",0.075,"cd12","Episodic","Restaurant",24,"M",2.5,0.61,40,1,1,"Gain",30,16,5,6,9,5
"1:307",7,"first_win","876",FALSE,"right",0.5,"1","first_time",0.0875,"cd12","Episodic","Restaurant",24,"M",2.5,0.61,40,1,0,"Gain",30,16,5,6,9,5
"1:308",8,"first_win","501",TRUE,"left",1,"4","first_time",0.1125,"cd12","Episodic","Restaurant",24,"M",2.5,0.61,40,1,0,"Gain",30,16,5,6,9,5
"1:309",9,"first_win","326",TRUE,"left",0,"4","first_time",0.1125,"cd12","Episodic","Restaurant",24,"M",2.5,0.61,40,1,1,"Gain",30,16,5,6,9,5
"1:310",10,"first_win","617",TRUE,"left",0,"4","first_time",0.1125,"cd12","Episodic","Restaurant",24,"M",2.5,0.61,40,1,0,"Gain",30,16,5,6,9,5
"1:311",11,"first_win","178",TRUE,"left",1,"4","first_time",0.1375,"cd12","Episodic","Restaurant",24,"M",2.5,0.61,40,1,0,"Gain",30,16,5,6,9,5
"1:312",12,"first_win","282",TRUE,"left",1,"4","first_time",0.1625,"cd12","Episodic","Restaurant",24,"M",2.5,0.61,40,1,1,"Gain",30,16,5,6,9,5
"1:313",13,"first_win","564",TRUE,"left",1,"4","first_time",0.1875,"cd12","Episodic","Restaurant",24,"M",2.5,0.61,40,1,1,"Gain",30,16,5,6,9,5
"1:314",14,"first_win","699",TRUE,"left",0,"4","first_time",0.1875,"cd12","Episodic","Restaurant",24,"M",2.5,0.61,40,1,1,"Gain",30,16,5,6,9,5
"1:315",15,"first_win","760",FALSE,"right",0.5,"1","first_time",0.2,"cd12","Episodic","Restaurant",24,"M",2.5,0.61,40,1,0,"Gain",30,16,5,6,9,5
"1:316",16,"first_win","310",TRUE,"left",0,"4","first_time",0.2,"cd12","Episodic","Restaurant",24,"M",2.5,0.61,40,1,0,"Gain",30,16,5,6,9,5
"1:317",17,"first_win","160",TRUE,"left",1,"4","first_time",0.225,"cd12","Episodic","Restaurant",24,"M",2.5,0.61,40,1,0,"Gain",30,16,5,6,9,5
"1:318",18,"first_win","0",TRUE,"left",1,"4","first_time",0.25,"cd12","Episodic","Restaurant",24,"M",2.5,0.61,40,1,1,"Gain",30,16,5,6,9,5
"1:319",19,"first_win","503",FALSE,"right",0.5,"1","first_time",0.2625,"cd12","Episodic","Restaurant",24,"M",2.5,0.61,40,1,1,"Gain",30,16,5,6,9,5
"1:320",20,"first_win","240",FALSE,"right",0.5,"1","first_time",0.275,"cd12","Episodic","Restaurant",24,"M",2.5,0.61,40,1,1,"Gain",30,16,5,6,9,5
"1:321",21,"first_win","389",TRUE,"left",0,"4","first_time",0.275,"cd12","Episodic","Restaurant",24,"M",2.5,0.61,40,2,1,"Gain",30,16,5,6,9,5
"1:322",22,"first_win","184",TRUE,"left",1,"4","first_time",0.3,"cd12","Episodic","Restaurant",24,"M",2.5,0.61,40,2,0,"Gain",30,16,5,6,9,5
"1:323",23,"first_win","620",TRUE,"left",0,"4","first_time",0.3,"cd12","Episodic","Restaurant",24,"M",2.5,0.61,40,2,1,"Gain",30,16,5,6,9,5
"1:324",24,"first_win","381",TRUE,"left",1,"4","first_time",0.325,"cd12","Episodic","Restaurant",24,"M",2.5,0.61,40,2,0,"Gain",30,16,5,6,9,5
"1:325",25,"first_win","405",TRUE,"left",0,"4","first_time",0.325,"cd12","Episodic","Restaurant",24,"M",2.5,0.61,40,2,1,"Gain",30,16,5,6,9,5
"1:326",26,"first_win","326",FALSE,"right",0.5,"1","first_time",0.3375,"cd12","Episodic","Restaurant",24,"M",2.5,0.61,40,2,0,"Gain",30,16,5,6,9,5
"1:327",27,"first_win","246",FALSE,"right",0.5,"1","first_time",0.35,"cd12","Episodic","Restaurant",24,"M",2.5,0.61,40,2,0,"Gain",30,16,5,6,9,5
"1:328",28,"first_win","198",TRUE,"left",0,"4","first_time",0.35,"cd12","Episodic","Restaurant",24,"M",2.5,0.61,40,2,0,"Gain",30,16,5,6,9,5
"1:329",29,"first_win","265",TRUE,"left",1,"4","first_time",0.375,"cd12","Episodic","Restaurant",24,"M",2.5,0.61,40,2,0,"Gain",30,16,5,6,9,5
"1:330",30,"first_win","372",TRUE,"left",1,"4","first_time",0.4,"cd12","Episodic","Restaurant",24,"M",2.5,0.61,40,2,1,"Gain",30,16,5,6,9,5
"1:331",31,"first_win","351",FALSE,"right",0.5,"1","first_time",0.4125,"cd12","Episodic","Restaurant",24,"M",2.5,0.61,40,2,1,"Gain",30,16,5,6,9,5
"1:332",32,"first_win","283",FALSE,"right",0.5,"1","first_time",0.425,"cd12","Episodic","Restaurant",24,"M",2.5,0.61,40,2,1,"Gain",30,16,5,6,9,5
"1:333",33,"first_win","247",TRUE,"left",0,"4","first_time",0.425,"cd12","Episodic","Restaurant",24,"M",2.5,0.61,40,2,1,"Gain",30,16,5,6,9,5
"1:334",34,"first_win","491",TRUE,"left",0,"4","first_time",0.425,"cd12","Episodic","Restaurant",24,"M",2.5,0.61,40,2,0,"Gain",30,16,5,6,9,5
"1:335",35,"first_win","231",TRUE,"left",0,"4","first_time",0.425,"cd12","Episodic","Restaurant",24,"M",2.5,0.61,40,2,0,"Gain",30,16,5,6,9,5
"1:336",36,"first_win","196",TRUE,"left",0,"4","first_time",0.425,"cd12","Episodic","Restaurant",24,"M",2.5,0.61,40,2,0,"Gain",30,16,5,6,9,5
"1:337",37,"first_win","0",FALSE,"right",0.5,"1","first_time",0.4375,"cd12","Episodic","Restaurant",24,"M",2.5,0.61,40,2,0,"Gain",30,16,5,6,9,5
"1:338",38,"first_win","269",FALSE,"right",0.5,"1","first_time",0.45,"cd12","Episodic","Restaurant",24,"M",2.5,0.61,40,2,0,"Gain",30,16,5,6,9,5
"1:339",39,"first_win","364",TRUE,"left",0,"4","first_time",0.45,"cd12","Episodic","Restaurant",24,"M",2.5,0.61,40,2,0,"Gain",30,16,5,6,9,5
"1:340",40,"first_win","431",TRUE,"left",1,"4","first_time",0.475,"cd12","Episodic","Restaurant",24,"M",2.5,0.61,40,2,0,"Gain",30,16,5,6,9,5
"1:341",41,"first_win","314",TRUE,"left",1,"4","first_time",0.5,"cd12","Episodic","Restaurant",24,"M",2.5,0.61,40,3,1,"Gain",30,16,5,6,9,5
"1:342",42,"first_win","227",TRUE,"left",1,"4","first_time",0.525,"cd12","Episodic","Restaurant",24,"M",2.5,0.61,40,3,1,"Gain",30,16,5,6,9,5
"1:343",43,"first_win","238",TRUE,"left",0,"4","first_time",0.525,"cd12","Episodic","Restaurant",24,"M",2.5,0.61,40,3,1,"Gain",30,16,5,6,9,5
"1:344",44,"first_win","247",FALSE,"right",0.5,"1","first_time",0.5375,"cd12","Episodic","Restaurant",24,"M",2.5,0.61,40,3,0,"Gain",30,16,5,6,9,5
"1:345",45,"first_win","441",TRUE,"left",1,"4","first_time",0.5625,"cd12","Episodic","Restaurant",24,"M",2.5,0.61,40,3,0,"Gain",30,16,5,6,9,5
"1:346",46,"first_win","408",TRUE,"left",0,"4","first_time",0.5625,"cd12","Episodic","Restaurant",24,"M",2.5,0.61,40,3,1,"Gain",30,16,5,6,9,5
"1:347",47,"first_win","312",TRUE,"left",0,"4","first_time",0.5625,"cd12","Episodic","Restaurant",24,"M",2.5,0.61,40,3,0,"Gain",30,16,5,6,9,5
"1:348",48,"first_win","478",FALSE,"right",0.5,"1","first_time",0.575,"cd12","Episodic","Restaurant",24,"M",2.5,0.61,40,3,0,"Gain",30,16,5,6,9,5
"1:349",49,"first_win","234",FALSE,"right",0.5,"1","first_time",0.5875,"cd12","Episodic","Restaurant",24,"M",2.5,0.61,40,3,0,"Gain",30,16,5,6,9,5
"1:350",50,"first_win","366",TRUE,"left",0,"4","first_time",0.5875,"cd12","Episodic","Restaurant",24,"M",2.5,0.61,40,3,0,"Gain",30,16,5,6,9,5
"1:351",51,"first_win","296",TRUE,"left",0,"4","first_time",0.5875,"cd12","Episodic","Restaurant",24,"M",2.5,0.61,40,3,0,"Gain",30,16,5,6,9,5
"1:352",52,"first_win","435",FALSE,"right",0.5,"1","first_time",0.6,"cd12","Episodic","Restaurant",24,"M",2.5,0.61,40,3,0,"Gain",30,16,5,6,9,5
"1:353",53,"first_win","256",FALSE,"right",0.5,"1","first_time",0.6125,"cd12","Episodic","Restaurant",24,"M",2.5,0.61,40,3,0,"Gain",30,16,5,6,9,5
"1:354",54,"first_win","355",TRUE,"left",1,"4","first_time",0.6375,"cd12","Episodic","Restaurant",24,"M",2.5,0.61,40,3,0,"Gain",30,16,5,6,9,5
"1:355",55,"first_win","303",TRUE,"left",0,"4","first_time",0.6375,"cd12","Episodic","Restaurant",24,"M",2.5,0.61,40,3,1,"Gain",30,16,5,6,9,5
"1:356",56,"first_win","475",FALSE,"right",0.5,"1","first_time",0.65,"cd12","Episodic","Restaurant",24,"M",2.5,0.61,40,3,0,"Gain",30,16,5,6,9,5
"1:357",57,"first_win","238",TRUE,"left",1,"4","first_time",0.675,"cd12","Episodic","Restaurant",24,"M",2.5,0.61,40,3,0,"Gain",30,16,5,6,9,5
"1:358",58,"first_win","434",TRUE,"left",0,"4","first_time",0.675,"cd12","Episodic","Restaurant",24,"M",2.5,0.61,40,3,1,"Gain",30,16,5,6,9,5
"1:359",59,"first_win","423",FALSE,"right",0.5,"1","first_time",0.6875,"cd12","Episodic","Restaurant",24,"M",2.5,0.61,40,3,0,"Gain",30,16,5,6,9,5
"1:360",60,"first_win","238",FALSE,"right",0.5,"1","first_time",0.7,"cd12","Episodic","Restaurant",24,"M",2.5,0.61,40,3,0,"Gain",30,16,5,6,9,5
"1:361",61,"first_win","434",FALSE,"right",0.5,"1","first_time",0.7125,"cd12","Episodic","Restaurant",24,"M",2.5,0.61,40,4,0,"Gain",30,16,5,6,9,5
"1:362",62,"first_win","319",FALSE,"right",0.5,"1","first_time",0.725,"cd12","Episodic","Restaurant",24,"M",2.5,0.61,40,4,0,"Gain",30,16,5,6,9,5
"1:363",63,"first_win","298",TRUE,"left",0,"4","first_time",0.725,"cd12","Episodic","Restaurant",24,"M",2.5,0.61,40,4,0,"Gain",30,16,5,6,9,5
"1:364",64,"first_win","241",TRUE,"left",1,"4","first_time",0.75,"cd12","Episodic","Restaurant",24,"M",2.5,0.61,40,4,0,"Gain",30,16,5,6,9,5
"1:365",65,"first_win","683",FALSE,"right",0.5,"1","first_time",0.7625,"cd12","Episodic","Restaurant",24,"M",2.5,0.61,40,4,1,"Gain",30,16,5,6,9,5
"1:366",66,"first_win","396",FALSE,"right",0.5,"1","first_time",0.775,"cd12","Episodic","Restaurant",24,"M",2.5,0.61,40,4,1,"Gain",30,16,5,6,9,5
"1:367",67,"first_win","510",FALSE,"right",0.5,"1","first_time",0.7875,"cd12","Episodic","Restaurant",24,"M",2.5,0.61,40,4,1,"Gain",30,16,5,6,9,5
"1:368",68,"first_win","461",TRUE,"left",0,"4","first_time",0.7875,"cd12","Episodic","Restaurant",24,"M",2.5,0.61,40,4,1,"Gain",30,16,5,6,9,5
"1:369",69,"first_win","462",TRUE,"left",1,"4","first_time",0.8125,"cd12","Episodic","Restaurant",24,"M",2.5,0.61,40,4,0,"Gain",30,16,5,6,9,5
"1:370",70,"first_win","347",FALSE,"right",0.5,"1","first_time",0.825,"cd12","Episodic","Restaurant",24,"M",2.5,0.61,40,4,1,"Gain",30,16,5,6,9,5
"1:371",71,"first_win","199",FALSE,"right",0.5,"1","first_time",0.8375,"cd12","Episodic","Restaurant",24,"M",2.5,0.61,40,4,1,"Gain",30,16,5,6,9,5
"1:372",72,"first_win","273",TRUE,"left",1,"4","first_time",0.8625,"cd12","Episodic","Restaurant",24,"M",2.5,0.61,40,4,1,"Gain",30,16,5,6,9,5
"1:373",73,"first_win","362",FALSE,"right",0.5,"1","first_time",0.875,"cd12","Episodic","Restaurant",24,"M",2.5,0.61,40,4,1,"Gain",30,16,5,6,9,5
"1:374",74,"first_win","528",TRUE,"left",1,"4","first_time",0.9,"cd12","Episodic","Restaurant",24,"M",2.5,0.61,40,4,1,"Gain",30,16,5,6,9,5
"1:375",75,"first_win","300",FALSE,"right",0.5,"1","first_time",0.9125,"cd12","Episodic","Restaurant",24,"M",2.5,0.61,40,4,1,"Gain",30,16,5,6,9,5
"1:376",76,"first_win","297",TRUE,"left",0,"4","first_time",0.9125,"cd12","Episodic","Restaurant",24,"M",2.5,0.61,40,4,1,"Gain",30,16,5,6,9,5
"1:377",77,"first_win","553",TRUE,"left",0,"4","first_time",0.9125,"cd12","Episodic","Restaurant",24,"M",2.5,0.61,40,4,0,"Gain",30,16,5,6,9,5
"1:378",78,"first_win","291",TRUE,"left",1,"4","first_time",0.9375,"cd12","Episodic","Restaurant",24,"M",2.5,0.61,40,4,0,"Gain",30,16,5,6,9,5
"1:379",79,"first_win","398",FALSE,"right",0.5,"1","first_time",0.95,"cd12","Episodic","Restaurant",24,"M",2.5,0.61,40,4,1,"Gain",30,16,5,6,9,5
"1:380",80,"first_win","249",FALSE,"right",0.5,"1","first_time",0.9625,"cd12","Episodic","Restaurant",24,"M",2.5,0.61,40,4,1,"Gain",30,16,5,6,9,5
"1:381",81,"first_win","434",TRUE,"left",1,"4","first_time",0.9875,"cd12","Episodic","Restaurant",24,"M",2.5,0.61,40,5,1,"Gain",30,16,5,6,9,5
"1:382",82,"first_win","494",TRUE,"left",1,"4","first_time",1.0125,"cd12","Episodic","Restaurant",24,"M",2.5,0.61,40,5,1,"Gain",30,16,5,6,9,5
"1:383",83,"first_win","601",TRUE,"left",0,"4","first_time",1.0125,"cd12","Episodic","Restaurant",24,"M",2.5,0.61,40,5,1,"Gain",30,16,5,6,9,5
"1:384",84,"first_win","373",FALSE,"right",0.5,"1","first_time",1.025,"cd12","Episodic","Restaurant",24,"M",2.5,0.61,40,5,0,"Gain",30,16,5,6,9,5
"1:385",85,"first_win","302",TRUE,"left",0,"4","first_time",1.025,"cd12","Episodic","Restaurant",24,"M",2.5,0.61,40,5,0,"Gain",30,16,5,6,9,5
"1:386",86,"first_win","0",FALSE,"right",0.5,"1","first_time",1.0375,"cd12","Episodic","Restaurant",24,"M",2.5,0.61,40,5,0,"Gain",30,16,5,6,9,5
"1:387",87,"first_win","448",TRUE,"left",1,"4","first_time",1.0625,"cd12","Episodic","Restaurant",24,"M",2.5,0.61,40,5,0,"Gain",30,16,5,6,9,5
"1:388",88,"first_win","531",FALSE,"right",0.5,"1","first_time",1.075,"cd12","Episodic","Restaurant",24,"M",2.5,0.61,40,5,1,"Gain",30,16,5,6,9,5
"1:389",89,"first_win","535",FALSE,"right",0.5,"1","first_time",1.0875,"cd12","Episodic","Restaurant",24,"M",2.5,0.61,40,5,1,"Gain",30,16,5,6,9,5
"1:390",90,"first_win","617",TRUE,"left",0,"4","first_time",1.0875,"cd12","Episodic","Restaurant",24,"M",2.5,0.61,40,5,1,"Gain",30,16,5,6,9,5
"1:391",91,"first_win","355",TRUE,"left",0,"4","first_time",1.0875,"cd12","Episodic","Restaurant",24,"M",2.5,0.61,40,5,0,"Gain",30,16,5,6,9,5
"1:392",92,"first_win","464",TRUE,"left",1,"4","first_time",1.1125,"cd12","Episodic","Restaurant",24,"M",2.5,0.61,40,5,0,"Gain",30,16,5,6,9,5
"1:393",93,"first_win","435",TRUE,"left",0,"4","first_time",1.1125,"cd12","Episodic","Restaurant",24,"M",2.5,0.61,40,5,1,"Gain",30,16,5,6,9,5
"1:394",94,"first_win","263",TRUE,"left",1,"4","first_time",1.1375,"cd12","Episodic","Restaurant",24,"M",2.5,0.61,40,5,0,"Gain",30,16,5,6,9,5
"1:395",95,"first_win","746",TRUE,"left",0,"4","first_time",1.1375,"cd12","Episodic","Restaurant",24,"M",2.5,0.61,40,5,1,"Gain",30,16,5,6,9,5
"1:396",96,"first_win","462",FALSE,"right",0.5,"1","first_time",1.15,"cd12","Episodic","Restaurant",24,"M",2.5,0.61,40,5,0,"Gain",30,16,5,6,9,5
"1:397",97,"first_win","441",TRUE,"left",1,"4","first_time",1.175,"cd12","Episodic","Restaurant",24,"M",2.5,0.61,40,5,0,"Gain",30,16,5,6,9,5
"1:398",98,"first_win","460",TRUE,"left",0,"4","first_time",1.175,"cd12","Episodic","Restaurant",24,"M",2.5,0.61,40,5,1,"Gain",30,16,5,6,9,5
"1:399",99,"first_win","224",FALSE,"right",0.5,"1","first_time",1.1875,"cd12","Episodic","Restaurant",24,"M",2.5,0.61,40,5,0,"Gain",30,16,5,6,9,5
"1:400",100,"first_win","541",TRUE,"left",1,"4","first_time",1.2125,"cd12","Episodic","Restaurant",24,"M",2.5,0.61,40,5,0,"Gain",30,16,5,6,9,5
"1:401",1,"second_win","-1",NA,NA,-1,NA,"first_time",0,"cd13","Episodic","Hospital",23,"F",2.5,0.494949494949495,0,1,NA,"Gain",38,20,3,2,5,2
"1:402",2,"second_win","1069",TRUE,"right",0,"2","first_time",0,"cd13","Episodic","Hospital",23,"F",2.5,0.494949494949495,0,1,NA,"Gain",38,20,3,2,5,2
"1:403",3,"second_win","860",FALSE,"left",0.5,"3","first_time",0.0125,"cd13","Episodic","Hospital",23,"F",2.5,0.494949494949495,0,1,0,"Gain",38,20,3,2,5,2
"1:404",4,"second_win","1430",FALSE,"left",0.5,"3","first_time",0.025,"cd13","Episodic","Hospital",23,"F",2.5,0.494949494949495,0,1,0,"Gain",38,20,3,2,5,2
"1:405",5,"second_win","1891",TRUE,"right",1,"2","first_time",0.05,"cd13","Episodic","Hospital",23,"F",2.5,0.494949494949495,0,1,0,"Gain",38,20,3,2,5,2
"1:406",6,"second_win","536",TRUE,"right",0,"2","first_time",0.05,"cd13","Episodic","Hospital",23,"F",2.5,0.494949494949495,0,1,1,"Gain",38,20,3,2,5,2
"1:407",7,"second_win","516",TRUE,"right",1,"2","first_time",0.075,"cd13","Episodic","Hospital",23,"F",2.5,0.494949494949495,0,1,0,"Gain",38,20,3,2,5,2
"1:408",8,"second_win","519",TRUE,"right",0,"2","first_time",0.075,"cd13","Episodic","Hospital",23,"F",2.5,0.494949494949495,0,1,1,"Gain",38,20,3,2,5,2
"1:409",9,"second_win","426",TRUE,"right",1,"2","first_time",0.1,"cd13","Episodic","Hospital",23,"F",2.5,0.494949494949495,0,1,0,"Gain",38,20,3,2,5,2
"1:410",10,"second_win","417",FALSE,"left",0.5,"3","first_time",0.1125,"cd13","Episodic","Hospital",23,"F",2.5,0.494949494949495,0,1,1,"Gain",38,20,3,2,5,2
"1:411",11,"second_win","1483",TRUE,"right",1,"2","first_time",0.1375,"cd13","Episodic","Hospital",23,"F",2.5,0.494949494949495,0,1,1,"Gain",38,20,3,2,5,2
"1:412",12,"second_win","405",FALSE,"left",0.5,"3","first_time",0.15,"cd13","Episodic","Hospital",23,"F",2.5,0.494949494949495,0,1,1,"Gain",38,20,3,2,5,2
"1:413",13,"second_win","745",FALSE,"left",0.5,"3","first_time",0.1625,"cd13","Episodic","Hospital",23,"F",2.5,0.494949494949495,0,1,1,"Gain",38,20,3,2,5,2
"1:414",14,"second_win","684",FALSE,"left",0.5,"3","first_time",0.175,"cd13","Episodic","Hospital",23,"F",2.5,0.494949494949495,0,1,1,"Gain",38,20,3,2,5,2
"1:415",15,"second_win","481",TRUE,"right",0,"2","first_time",0.175,"cd13","Episodic","Hospital",23,"F",2.5,0.494949494949495,0,1,1,"Gain",38,20,3,2,5,2
"1:416",16,"second_win","184",TRUE,"right",1,"2","first_time",0.2,"cd13","Episodic","Hospital",23,"F",2.5,0.494949494949495,0,1,0,"Gain",38,20,3,2,5,2
"1:417",17,"second_win","370",FALSE,"left",0.5,"3","first_time",0.2125,"cd13","Episodic","Hospital",23,"F",2.5,0.494949494949495,0,1,1,"Gain",38,20,3,2,5,2
"1:418",18,"second_win","174",TRUE,"right",1,"2","first_time",0.2375,"cd13","Episodic","Hospital",23,"F",2.5,0.494949494949495,0,1,1,"Gain",38,20,3,2,5,2
"1:419",19,"second_win","183",FALSE,"left",0.5,"3","first_time",0.25,"cd13","Episodic","Hospital",23,"F",2.5,0.494949494949495,0,1,1,"Gain",38,20,3,2,5,2
"1:420",20,"second_win","294",TRUE,"right",1,"2","first_time",0.275,"cd13","Episodic","Hospital",23,"F",2.5,0.494949494949495,0,1,1,"Gain",38,20,3,2,5,2
"1:421",21,"second_win","168",FALSE,"left",0.5,"3","first_time",0.2875,"cd13","Episodic","Hospital",23,"F",2.5,0.494949494949495,0,2,1,"Gain",38,20,3,2,5,2
"1:422",22,"second_win","563",TRUE,"right",1,"2","first_time",0.3125,"cd13","Episodic","Hospital",23,"F",2.5,0.494949494949495,0,2,1,"Gain",38,20,3,2,5,2
"1:423",23,"second_win","249",FALSE,"left",0.5,"3","first_time",0.325,"cd13","Episodic","Hospital",23,"F",2.5,0.494949494949495,0,2,1,"Gain",38,20,3,2,5,2
"1:424",24,"second_win","155",TRUE,"right",0,"2","first_time",0.325,"cd13","Episodic","Hospital",23,"F",2.5,0.494949494949495,0,2,1,"Gain",38,20,3,2,5,2
"1:425",25,"second_win","310",TRUE,"right",1,"2","first_time",0.35,"cd13","Episodic","Hospital",23,"F",2.5,0.494949494949495,0,2,0,"Gain",38,20,3,2,5,2
"1:426",26,"second_win","1574",FALSE,"left",0.5,"3","first_time",0.3625,"cd13","Episodic","Hospital",23,"F",2.5,0.494949494949495,0,2,1,"Gain",38,20,3,2,5,2
"1:427",27,"second_win","492",FALSE,"left",0.5,"3","first_time",0.375,"cd13","Episodic","Hospital",23,"F",2.5,0.494949494949495,0,2,1,"Gain",38,20,3,2,5,2
"1:428",28,"second_win","314",FALSE,"left",0.5,"3","first_time",0.3875,"cd13","Episodic","Hospital",23,"F",2.5,0.494949494949495,0,2,1,"Gain",38,20,3,2,5,2
"1:429",29,"second_win","971",TRUE,"right",0,"2","first_time",0.3875,"cd13","Episodic","Hospital",23,"F",2.5,0.494949494949495,0,2,1,"Gain",38,20,3,2,5,2
"1:430",30,"second_win","177",TRUE,"right",1,"2","first_time",0.4125,"cd13","Episodic","Hospital",23,"F",2.5,0.494949494949495,0,2,0,"Gain",38,20,3,2,5,2
"1:431",31,"second_win","304",TRUE,"right",1,"2","first_time",0.4375,"cd13","Episodic","Hospital",23,"F",2.5,0.494949494949495,0,2,1,"Gain",38,20,3,2,5,2
"1:432",32,"second_win","2205",FALSE,"left",0.5,"3","first_time",0.45,"cd13","Episodic","Hospital",23,"F",2.5,0.494949494949495,0,2,1,"Gain",38,20,3,2,5,2
"1:433",33,"second_win","356",TRUE,"right",1,"2","first_time",0.475,"cd13","Episodic","Hospital",23,"F",2.5,0.494949494949495,0,2,1,"Gain",38,20,3,2,5,2
"1:434",34,"second_win","193",FALSE,"left",0.5,"3","first_time",0.4875,"cd13","Episodic","Hospital",23,"F",2.5,0.494949494949495,0,2,1,"Gain",38,20,3,2,5,2
"1:435",35,"second_win","270",TRUE,"right",1,"2","first_time",0.5125,"cd13","Episodic","Hospital",23,"F",2.5,0.494949494949495,0,2,1,"Gain",38,20,3,2,5,2
"1:436",36,"second_win","180",FALSE,"left",0.5,"3","first_time",0.525,"cd13","Episodic","Hospital",23,"F",2.5,0.494949494949495,0,2,1,"Gain",38,20,3,2,5,2
"1:437",37,"second_win","377",TRUE,"right",1,"2","first_time",0.55,"cd13","Episodic","Hospital",23,"F",2.5,0.494949494949495,0,2,1,"Gain",38,20,3,2,5,2
"1:438",38,"second_win","245",FALSE,"left",0.5,"3","first_time",0.5625,"cd13","Episodic","Hospital",23,"F",2.5,0.494949494949495,0,2,1,"Gain",38,20,3,2,5,2
"1:439",39,"second_win","186",TRUE,"right",0,"2","first_time",0.5625,"cd13","Episodic","Hospital",23,"F",2.5,0.494949494949495,0,2,1,"Gain",38,20,3,2,5,2
"1:440",40,"second_win","84",TRUE,"right",0,"2","first_time",0.5625,"cd13","Episodic","Hospital",23,"F",2.5,0.494949494949495,0,2,0,"Gain",38,20,3,2,5,2
"1:441",41,"second_win","729",TRUE,"right",1,"2","first_time",0.5875,"cd13","Episodic","Hospital",23,"F",2.5,0.494949494949495,0,3,0,"Gain",38,20,3,2,5,2
"1:442",42,"second_win","387",FALSE,"left",0.5,"3","first_time",0.6,"cd13","Episodic","Hospital",23,"F",2.5,0.494949494949495,0,3,1,"Gain",38,20,3,2,5,2
"1:443",43,"second_win","257",FALSE,"left",0.5,"3","first_time",0.6125,"cd13","Episodic","Hospital",23,"F",2.5,0.494949494949495,0,3,1,"Gain",38,20,3,2,5,2
"1:444",44,"second_win","272",FALSE,"left",0.5,"3","first_time",0.625,"cd13","Episodic","Hospital",23,"F",2.5,0.494949494949495,0,3,1,"Gain",38,20,3,2,5,2
"1:445",45,"second_win","362",FALSE,"left",0.5,"3","first_time",0.6375,"cd13","Episodic","Hospital",23,"F",2.5,0.494949494949495,0,3,1,"Gain",38,20,3,2,5,2
"1:446",46,"second_win","342",FALSE,"left",0.5,"3","first_time",0.65,"cd13","Episodic","Hospital",23,"F",2.5,0.494949494949495,0,3,1,"Gain",38,20,3,2,5,2
"1:447",47,"second_win","713",TRUE,"right",1,"2","first_time",0.675,"cd13","Episodic","Hospital",23,"F",2.5,0.494949494949495,0,3,1,"Gain",38,20,3,2,5,2
"1:448",48,"second_win","322",FALSE,"left",0.5,"3","first_time",0.6875,"cd13","Episodic","Hospital",23,"F",2.5,0.494949494949495,0,3,1,"Gain",38,20,3,2,5,2
"1:449",49,"second_win","688",TRUE,"right",0,"2","first_time",0.6875,"cd13","Episodic","Hospital",23,"F",2.5,0.494949494949495,0,3,1,"Gain",38,20,3,2,5,2
"1:450",50,"second_win","86",TRUE,"right",0,"2","first_time",0.6875,"cd13","Episodic","Hospital",23,"F",2.5,0.494949494949495,0,3,0,"Gain",38,20,3,2,5,2
"1:451",51,"second_win","0",FALSE,"left",0.5,"3","first_time",0.7,"cd13","Episodic","Hospital",23,"F",2.5,0.494949494949495,0,3,0,"Gain",38,20,3,2,5,2
"1:452",52,"second_win","229",FALSE,"left",0.5,"3","first_time",0.7125,"cd13","Episodic","Hospital",23,"F",2.5,0.494949494949495,0,3,0,"Gain",38,20,3,2,5,2
"1:453",53,"second_win","226",FALSE,"left",0.5,"3","first_time",0.725,"cd13","Episodic","Hospital",23,"F",2.5,0.494949494949495,0,3,0,"Gain",38,20,3,2,5,2
"1:454",54,"second_win","287",FALSE,"left",0.5,"3","first_time",0.7375,"cd13","Episodic","Hospital",23,"F",2.5,0.494949494949495,0,3,0,"Gain",38,20,3,2,5,2
"1:455",55,"second_win","188",FALSE,"left",0.5,"3","first_time",0.75,"cd13","Episodic","Hospital",23,"F",2.5,0.494949494949495,0,3,0,"Gain",38,20,3,2,5,2
"1:456",56,"second_win","425",FALSE,"left",0.5,"3","first_time",0.7625,"cd13","Episodic","Hospital",23,"F",2.5,0.494949494949495,0,3,0,"Gain",38,20,3,2,5,2
"1:457",57,"second_win","323",FALSE,"left",0.5,"3","first_time",0.775,"cd13","Episodic","Hospital",23,"F",2.5,0.494949494949495,0,3,0,"Gain",38,20,3,2,5,2
"1:458",58,"second_win","280",FALSE,"left",0.5,"3","first_time",0.7875,"cd13","Episodic","Hospital",23,"F",2.5,0.494949494949495,0,3,0,"Gain",38,20,3,2,5,2
"1:459",59,"second_win","381",FALSE,"left",0.5,"3","first_time",0.8,"cd13","Episodic","Hospital",23,"F",2.5,0.494949494949495,0,3,0,"Gain",38,20,3,2,5,2
"1:460",60,"second_win","272",FALSE,"left",0.5,"3","first_time",0.8125,"cd13","Episodic","Hospital",23,"F",2.5,0.494949494949495,0,3,0,"Gain",38,20,3,2,5,2
"1:461",61,"second_win","158",FALSE,"left",0.5,"3","first_time",0.825,"cd13","Episodic","Hospital",23,"F",2.5,0.494949494949495,0,4,0,"Gain",38,20,3,2,5,2
"1:462",62,"second_win","203",TRUE,"right",1,"2","first_time",0.85,"cd13","Episodic","Hospital",23,"F",2.5,0.494949494949495,0,4,0,"Gain",38,20,3,2,5,2
"1:463",63,"second_win","378",TRUE,"right",1,"2","first_time",0.875,"cd13","Episodic","Hospital",23,"F",2.5,0.494949494949495,0,4,1,"Gain",38,20,3,2,5,2
"1:464",64,"second_win","593",FALSE,"left",0.5,"3","first_time",0.8875,"cd13","Episodic","Hospital",23,"F",2.5,0.494949494949495,0,4,1,"Gain",38,20,3,2,5,2
"1:465",65,"second_win","221",FALSE,"left",0.5,"3","first_time",0.9,"cd13","Episodic","Hospital",23,"F",2.5,0.494949494949495,0,4,1,"Gain",38,20,3,2,5,2
"1:466",66,"second_win","394",TRUE,"right",0,"2","first_time",0.9,"cd13","Episodic","Hospital",23,"F",2.5,0.494949494949495,0,4,1,"Gain",38,20,3,2,5,2
"1:467",67,"second_win","823",FALSE,"left",0.5,"3","first_time",0.9125,"cd13","Episodic","Hospital",23,"F",2.5,0.494949494949495,0,4,0,"Gain",38,20,3,2,5,2
"1:468",68,"second_win","197",TRUE,"right",0,"2","first_time",0.9125,"cd13","Episodic","Hospital",23,"F",2.5,0.494949494949495,0,4,0,"Gain",38,20,3,2,5,2
"1:469",69,"second_win","159",TRUE,"right",0,"2","first_time",0.9125,"cd13","Episodic","Hospital",23,"F",2.5,0.494949494949495,0,4,0,"Gain",38,20,3,2,5,2
"1:470",70,"second_win","412",FALSE,"left",0.5,"3","first_time",0.925,"cd13","Episodic","Hospital",23,"F",2.5,0.494949494949495,0,4,0,"Gain",38,20,3,2,5,2
"1:471",71,"second_win","312",TRUE,"right",0,"2","first_time",0.925,"cd13","Episodic","Hospital",23,"F",2.5,0.494949494949495,0,4,0,"Gain",38,20,3,2,5,2
"1:472",72,"second_win","152",TRUE,"right",0,"2","first_time",0.925,"cd13","Episodic","Hospital",23,"F",2.5,0.494949494949495,0,4,0,"Gain",38,20,3,2,5,2
"1:473",73,"second_win","51",TRUE,"right",1,"2","first_time",0.95,"cd13","Episodic","Hospital",23,"F",2.5,0.494949494949495,0,4,0,"Gain",38,20,3,2,5,2
"1:474",74,"second_win","669",TRUE,"right",0,"2","first_time",0.95,"cd13","Episodic","Hospital",23,"F",2.5,0.494949494949495,0,4,1,"Gain",38,20,3,2,5,2
"1:475",75,"second_win","194",TRUE,"right",0,"2","first_time",0.95,"cd13","Episodic","Hospital",23,"F",2.5,0.494949494949495,0,4,0,"Gain",38,20,3,2,5,2
"1:476",76,"second_win","328",FALSE,"left",0.5,"3","first_time",0.9625,"cd13","Episodic","Hospital",23,"F",2.5,0.494949494949495,0,4,0,"Gain",38,20,3,2,5,2
"1:477",77,"second_win","326",FALSE,"left",0.5,"3","first_time",0.975,"cd13","Episodic","Hospital",23,"F",2.5,0.494949494949495,0,4,0,"Gain",38,20,3,2,5,2
"1:478",78,"second_win","259",FALSE,"left",0.5,"3","first_time",0.9875,"cd13","Episodic","Hospital",23,"F",2.5,0.494949494949495,0,4,0,"Gain",38,20,3,2,5,2
"1:479",79,"second_win","185",FALSE,"left",0.5,"3","first_time",1,"cd13","Episodic","Hospital",23,"F",2.5,0.494949494949495,0,4,0,"Gain",38,20,3,2,5,2
"1:480",80,"second_win","174",FALSE,"left",0.5,"3","first_time",1.0125,"cd13","Episodic","Hospital",23,"F",2.5,0.494949494949495,0,4,0,"Gain",38,20,3,2,5,2
"1:481",81,"second_win","160",FALSE,"left",0.5,"3","first_time",1.025,"cd13","Episodic","Hospital",23,"F",2.5,0.494949494949495,0,5,0,"Gain",38,20,3,2,5,2
"1:482",82,"second_win","224",FALSE,"left",0.5,"3","first_time",1.0375,"cd13","Episodic","Hospital",23,"F",2.5,0.494949494949495,0,5,0,"Gain",38,20,3,2,5,2
"1:483",83,"second_win","213",FALSE,"left",0.5,"3","first_time",1.05,"cd13","Episodic","Hospital",23,"F",2.5,0.494949494949495,0,5,0,"Gain",38,20,3,2,5,2
"1:484",84,"second_win","202",FALSE,"left",0.5,"3","first_time",1.0625,"cd13","Episodic","Hospital",23,"F",2.5,0.494949494949495,0,5,0,"Gain",38,20,3,2,5,2
"1:485",85,"second_win","190",FALSE,"left",0.5,"3","first_time",1.075,"cd13","Episodic","Hospital",23,"F",2.5,0.494949494949495,0,5,0,"Gain",38,20,3,2,5,2
"1:486",86,"second_win","401",TRUE,"right",0,"2","first_time",1.075,"cd13","Episodic","Hospital",23,"F",2.5,0.494949494949495,0,5,0,"Gain",38,20,3,2,5,2
"1:487",87,"second_win","307",TRUE,"right",1,"2","first_time",1.1,"cd13","Episodic","Hospital",23,"F",2.5,0.494949494949495,0,5,0,"Gain",38,20,3,2,5,2
"1:488",88,"second_win","330",TRUE,"right",1,"2","first_time",1.125,"cd13","Episodic","Hospital",23,"F",2.5,0.494949494949495,0,5,1,"Gain",38,20,3,2,5,2
"1:489",89,"second_win","213",TRUE,"right",0,"2","first_time",1.125,"cd13","Episodic","Hospital",23,"F",2.5,0.494949494949495,0,5,1,"Gain",38,20,3,2,5,2
"1:490",90,"second_win","369",TRUE,"right",1,"2","first_time",1.15,"cd13","Episodic","Hospital",23,"F",2.5,0.494949494949495,0,5,0,"Gain",38,20,3,2,5,2
"1:491",91,"second_win","351",TRUE,"right",0,"2","first_time",1.15,"cd13","Episodic","Hospital",23,"F",2.5,0.494949494949495,0,5,1,"Gain",38,20,3,2,5,2
"1:492",92,"second_win","172",TRUE,"right",1,"2","first_time",1.175,"cd13","Episodic","Hospital",23,"F",2.5,0.494949494949495,0,5,0,"Gain",38,20,3,2,5,2
"1:493",93,"second_win","177",TRUE,"right",0,"2","first_time",1.175,"cd13","Episodic","Hospital",23,"F",2.5,0.494949494949495,0,5,1,"Gain",38,20,3,2,5,2
"1:494",94,"second_win","165",TRUE,"right",0,"2","first_time",1.175,"cd13","Episodic","Hospital",23,"F",2.5,0.494949494949495,0,5,0,"Gain",38,20,3,2,5,2
"1:495",95,"second_win","64",TRUE,"right",1,"2","first_time",1.2,"cd13","Episodic","Hospital",23,"F",2.5,0.494949494949495,0,5,0,"Gain",38,20,3,2,5,2
"1:496",96,"second_win","163",TRUE,"right",0,"2","first_time",1.2,"cd13","Episodic","Hospital",23,"F",2.5,0.494949494949495,0,5,1,"Gain",38,20,3,2,5,2
"1:497",97,"second_win","317",TRUE,"right",1,"2","first_time",1.225,"cd13","Episodic","Hospital",23,"F",2.5,0.494949494949495,0,5,0,"Gain",38,20,3,2,5,2
"1:498",98,"second_win","306",TRUE,"right",1,"2","first_time",1.25,"cd13","Episodic","Hospital",23,"F",2.5,0.494949494949495,0,5,1,"Gain",38,20,3,2,5,2
"1:499",99,"second_win","199",FALSE,"left",0.5,"3","first_time",1.2625,"cd13","Episodic","Hospital",23,"F",2.5,0.494949494949495,0,5,1,"Gain",38,20,3,2,5,2
"1:500",100,"second_win","226",FALSE,"left",0.5,"3","first_time",1.275,"cd13","Episodic","Hospital",23,"F",2.5,0.494949494949495,0,5,1,"Gain",38,20,3,2,5,2
"1:501",1,"first_win","-1",NA,NA,-1,NA,"first_time",0,"cd14","General","Restaurant",22,"M",2.5,0.383838383838384,30,1,NA,"Gain",24,10,6,5.5,9.5,6
"1:502",2,"first_win","816",TRUE,"left",1,"4","first_time",0.025,"cd14","General","Restaurant",22,"M",2.5,0.383838383838384,30,1,NA,"Gain",24,10,6,5.5,9.5,6
"1:503",3,"first_win","2285",FALSE,"right",0.5,"3","first_time",0.0375,"cd14","General","Restaurant",22,"M",2.5,0.383838383838384,30,1,1,"Gain",24,10,6,5.5,9.5,6
"1:504",4,"first_win","1768",TRUE,"left",0,"4","first_time",0.0375,"cd14","General","Restaurant",22,"M",2.5,0.383838383838384,30,1,1,"Gain",24,10,6,5.5,9.5,6
"1:505",5,"first_win","1459",TRUE,"left",1,"4","first_time",0.0625,"cd14","General","Restaurant",22,"M",2.5,0.383838383838384,30,1,0,"Gain",24,10,6,5.5,9.5,6
"1:506",6,"first_win","1326",FALSE,"right",0.5,"3","first_time",0.075,"cd14","General","Restaurant",22,"M",2.5,0.383838383838384,30,1,1,"Gain",24,10,6,5.5,9.5,6
"1:507",7,"first_win","911",TRUE,"left",0,"4","first_time",0.075,"cd14","General","Restaurant",22,"M",2.5,0.383838383838384,30,1,1,"Gain",24,10,6,5.5,9.5,6
"1:508",8,"first_win","1941",FALSE,"right",0.5,"3","first_time",0.0875,"cd14","General","Restaurant",22,"M",2.5,0.383838383838384,30,1,0,"Gain",24,10,6,5.5,9.5,6
"1:509",9,"first_win","656",FALSE,"right",0.5,"3","first_time",0.1,"cd14","General","Restaurant",22,"M",2.5,0.383838383838384,30,1,0,"Gain",24,10,6,5.5,9.5,6
"1:510",10,"first_win","886",TRUE,"left",0,"4","first_time",0.1,"cd14","General","Restaurant",22,"M",2.5,0.383838383838384,30,1,0,"Gain",24,10,6,5.5,9.5,6
"1:511",11,"first_win","1059",FALSE,"right",0.5,"3","first_time",0.1125,"cd14","General","Restaurant",22,"M",2.5,0.383838383838384,30,1,0,"Gain",24,10,6,5.5,9.5,6
"1:512",12,"first_win","345",FALSE,"right",0.5,"3","first_time",0.125,"cd14","General","Restaurant",22,"M",2.5,0.383838383838384,30,1,0,"Gain",24,10,6,5.5,9.5,6
"1:513",13,"first_win","760",TRUE,"left",1,"4","first_time",0.15,"cd14","General","Restaurant",22,"M",2.5,0.383838383838384,30,1,0,"Gain",24,10,6,5.5,9.5,6
"1:514",14,"first_win","813",TRUE,"left",0,"4","first_time",0.15,"cd14","General","Restaurant",22,"M",2.5,0.383838383838384,30,1,1,"Gain",24,10,6,5.5,9.5,6
"1:515",15,"first_win","436",FALSE,"right",0.5,"3","first_time",0.1625,"cd14","General","Restaurant",22,"M",2.5,0.383838383838384,30,1,0,"Gain",24,10,6,5.5,9.5,6
"1:516",16,"first_win","483",FALSE,"right",0.5,"3","first_time",0.175,"cd14","General","Restaurant",22,"M",2.5,0.383838383838384,30,1,0,"Gain",24,10,6,5.5,9.5,6
"1:517",17,"first_win","346",TRUE,"left",0,"4","first_time",0.175,"cd14","General","Restaurant",22,"M",2.5,0.383838383838384,30,1,0,"Gain",24,10,6,5.5,9.5,6
"1:518",18,"first_win","183",TRUE,"left",1,"4","first_time",0.2,"cd14","General","Restaurant",22,"M",2.5,0.383838383838384,30,1,0,"Gain",24,10,6,5.5,9.5,6
"1:519",19,"first_win","227",FALSE,"right",0.5,"3","first_time",0.2125,"cd14","General","Restaurant",22,"M",2.5,0.383838383838384,30,1,1,"Gain",24,10,6,5.5,9.5,6
"1:520",20,"first_win","570",FALSE,"right",0.5,"3","first_time",0.225,"cd14","General","Restaurant",22,"M",2.5,0.383838383838384,30,1,1,"Gain",24,10,6,5.5,9.5,6
"1:521",21,"first_win","217",TRUE,"left",0,"4","first_time",0.225,"cd14","General","Restaurant",22,"M",2.5,0.383838383838384,30,2,1,"Gain",24,10,6,5.5,9.5,6
"1:522",22,"first_win","255",TRUE,"left",1,"4","first_time",0.25,"cd14","General","Restaurant",22,"M",2.5,0.383838383838384,30,2,0,"Gain",24,10,6,5.5,9.5,6
"1:523",23,"first_win","463",FALSE,"right",0.5,"3","first_time",0.2625,"cd14","General","Restaurant",22,"M",2.5,0.383838383838384,30,2,1,"Gain",24,10,6,5.5,9.5,6
"1:524",24,"first_win","332",FALSE,"right",0.5,"3","first_time",0.275,"cd14","General","Restaurant",22,"M",2.5,0.383838383838384,30,2,1,"Gain",24,10,6,5.5,9.5,6
"1:525",25,"first_win","197",TRUE,"left",1,"4","first_time",0.3,"cd14","General","Restaurant",22,"M",2.5,0.383838383838384,30,2,1,"Gain",24,10,6,5.5,9.5,6
"1:526",26,"first_win","409",FALSE,"right",0.5,"3","first_time",0.3125,"cd14","General","Restaurant",22,"M",2.5,0.383838383838384,30,2,1,"Gain",24,10,6,5.5,9.5,6
"1:527",27,"first_win","419",TRUE,"left",1,"4","first_time",0.3375,"cd14","General","Restaurant",22,"M",2.5,0.383838383838384,30,2,1,"Gain",24,10,6,5.5,9.5,6
"1:528",28,"first_win","324",FALSE,"right",0.5,"3","first_time",0.35,"cd14","General","Restaurant",22,"M",2.5,0.383838383838384,30,2,1,"Gain",24,10,6,5.5,9.5,6
"1:529",29,"first_win","366",TRUE,"left",0,"4","first_time",0.35,"cd14","General","Restaurant",22,"M",2.5,0.383838383838384,30,2,1,"Gain",24,10,6,5.5,9.5,6
"1:530",30,"first_win","175",TRUE,"left",0,"4","first_time",0.35,"cd14","General","Restaurant",22,"M",2.5,0.383838383838384,30,2,0,"Gain",24,10,6,5.5,9.5,6
"1:531",31,"first_win","470",FALSE,"right",0.5,"3","first_time",0.3625,"cd14","General","Restaurant",22,"M",2.5,0.383838383838384,30,2,0,"Gain",24,10,6,5.5,9.5,6
"1:532",32,"first_win","820",FALSE,"right",0.5,"3","first_time",0.375,"cd14","General","Restaurant",22,"M",2.5,0.383838383838384,30,2,0,"Gain",24,10,6,5.5,9.5,6
"1:533",33,"first_win","516",TRUE,"left",0,"4","first_time",0.375,"cd14","General","Restaurant",22,"M",2.5,0.383838383838384,30,2,0,"Gain",24,10,6,5.5,9.5,6
"1:534",34,"first_win","95",FALSE,"right",0.5,"3","first_time",0.3875,"cd14","General","Restaurant",22,"M",2.5,0.383838383838384,30,2,0,"Gain",24,10,6,5.5,9.5,6
"1:535",35,"first_win","340",TRUE,"left",0,"4","first_time",0.3875,"cd14","General","Restaurant",22,"M",2.5,0.383838383838384,30,2,0,"Gain",24,10,6,5.5,9.5,6
"1:536",36,"first_win","203",TRUE,"left",1,"4","first_time",0.4125,"cd14","General","Restaurant",22,"M",2.5,0.383838383838384,30,2,0,"Gain",24,10,6,5.5,9.5,6
"1:537",37,"first_win","248",FALSE,"right",0.5,"3","first_time",0.425,"cd14","General","Restaurant",22,"M",2.5,0.383838383838384,30,2,1,"Gain",24,10,6,5.5,9.5,6
"1:538",38,"first_win","364",FALSE,"right",0.5,"3","first_time",0.4375,"cd14","General","Restaurant",22,"M",2.5,0.383838383838384,30,2,1,"Gain",24,10,6,5.5,9.5,6
"1:539",39,"first_win","234",TRUE,"left",1,"4","first_time",0.4625,"cd14","General","Restaurant",22,"M",2.5,0.383838383838384,30,2,1,"Gain",24,10,6,5.5,9.5,6
"1:540",40,"first_win","217",FALSE,"right",0.5,"3","first_time",0.475,"cd14","General","Restaurant",22,"M",2.5,0.383838383838384,30,2,1,"Gain",24,10,6,5.5,9.5,6
"1:541",41,"first_win","224",TRUE,"left",0,"4","first_time",0.475,"cd14","General","Restaurant",22,"M",2.5,0.383838383838384,30,3,1,"Gain",24,10,6,5.5,9.5,6
"1:542",42,"first_win","151",TRUE,"left",0,"4","first_time",0.475,"cd14","General","Restaurant",22,"M",2.5,0.383838383838384,30,3,0,"Gain",24,10,6,5.5,9.5,6
"1:543",43,"first_win","57",FALSE,"right",0.5,"3","first_time",0.4875,"cd14","General","Restaurant",22,"M",2.5,0.383838383838384,30,3,0,"Gain",24,10,6,5.5,9.5,6
"1:544",44,"first_win","290",FALSE,"right",0.5,"3","first_time",0.5,"cd14","General","Restaurant",22,"M",2.5,0.383838383838384,30,3,0,"Gain",24,10,6,5.5,9.5,6
"1:545",45,"first_win","328",TRUE,"left",1,"4","first_time",0.525,"cd14","General","Restaurant",22,"M",2.5,0.383838383838384,30,3,0,"Gain",24,10,6,5.5,9.5,6
"1:546",46,"first_win","366",FALSE,"right",0.5,"3","first_time",0.5375,"cd14","General","Restaurant",22,"M",2.5,0.383838383838384,30,3,1,"Gain",24,10,6,5.5,9.5,6
"1:547",47,"first_win","213",FALSE,"right",0.5,"3","first_time",0.55,"cd14","General","Restaurant",22,"M",2.5,0.383838383838384,30,3,1,"Gain",24,10,6,5.5,9.5,6
"1:548",48,"first_win","256",TRUE,"left",1,"4","first_time",0.575,"cd14","General","Restaurant",22,"M",2.5,0.383838383838384,30,3,1,"Gain",24,10,6,5.5,9.5,6
"1:549",49,"first_win","282",FALSE,"right",0.5,"3","first_time",0.5875,"cd14","General","Restaurant",22,"M",2.5,0.383838383838384,30,3,1,"Gain",24,10,6,5.5,9.5,6
"1:550",50,"first_win","181",FALSE,"right",0.5,"3","first_time",0.6,"cd14","General","Restaurant",22,"M",2.5,0.383838383838384,30,3,1,"Gain",24,10,6,5.5,9.5,6
"1:551",51,"first_win","163",TRUE,"left",1,"4","first_time",0.625,"cd14","General","Restaurant",22,"M",2.5,0.383838383838384,30,3,1,"Gain",24,10,6,5.5,9.5,6
"1:552",52,"first_win","197",FALSE,"right",0.5,"3","first_time",0.6375,"cd14","General","Restaurant",22,"M",2.5,0.383838383838384,30,3,1,"Gain",24,10,6,5.5,9.5,6
"1:553",53,"first_win","195",FALSE,"right",0.5,"3","first_time",0.65,"cd14","General","Restaurant",22,"M",2.5,0.383838383838384,30,3,1,"Gain",24,10,6,5.5,9.5,6
"1:554",54,"first_win","162",TRUE,"left",0,"4","first_time",0.65,"cd14","General","Restaurant",22,"M",2.5,0.383838383838384,30,3,1,"Gain",24,10,6,5.5,9.5,6
"1:555",55,"first_win","184",FALSE,"right",0.5,"3","first_time",0.6625,"cd14","General","Restaurant",22,"M",2.5,0.383838383838384,30,3,0,"Gain",24,10,6,5.5,9.5,6
"1:556",56,"first_win","245",FALSE,"right",0.5,"3","first_time",0.675,"cd14","General","Restaurant",22,"M",2.5,0.383838383838384,30,3,0,"Gain",24,10,6,5.5,9.5,6
"1:557",57,"first_win","1398",TRUE,"left",1,"4","first_time",0.7,"cd14","General","Restaurant",22,"M",2.5,0.383838383838384,30,3,0,"Gain",24,10,6,5.5,9.5,6
"1:558",58,"first_win","708",FALSE,"right",0.5,"3","first_time",0.7125,"cd14","General","Restaurant",22,"M",2.5,0.383838383838384,30,3,1,"Gain",24,10,6,5.5,9.5,6
"1:559",59,"first_win","561",TRUE,"left",1,"4","first_time",0.7375,"cd14","General","Restaurant",22,"M",2.5,0.383838383838384,30,3,1,"Gain",24,10,6,5.5,9.5,6
"1:560",60,"first_win","314",FALSE,"right",0.5,"3","first_time",0.75,"cd14","General","Restaurant",22,"M",2.5,0.383838383838384,30,3,1,"Gain",24,10,6,5.5,9.5,6
"1:561",61,"first_win","1056",TRUE,"left",0,"4","first_time",0.75,"cd14","General","Restaurant",22,"M",2.5,0.383838383838384,30,4,1,"Gain",24,10,6,5.5,9.5,6
"1:562",62,"first_win","173",FALSE,"right",0.5,"3","first_time",0.7625,"cd14","General","Restaurant",22,"M",2.5,0.383838383838384,30,4,0,"Gain",24,10,6,5.5,9.5,6
"1:563",63,"first_win","178",FALSE,"right",0.5,"3","first_time",0.775,"cd14","General","Restaurant",22,"M",2.5,0.383838383838384,30,4,0,"Gain",24,10,6,5.5,9.5,6
"1:564",64,"first_win","434",FALSE,"right",0.5,"3","first_time",0.7875,"cd14","General","Restaurant",22,"M",2.5,0.383838383838384,30,4,0,"Gain",24,10,6,5.5,9.5,6
"1:565",65,"first_win","143",TRUE,"left",1,"4","first_time",0.8125,"cd14","General","Restaurant",22,"M",2.5,0.383838383838384,30,4,0,"Gain",24,10,6,5.5,9.5,6
"1:566",66,"first_win","309",FALSE,"right",0.5,"3","first_time",0.825,"cd14","General","Restaurant",22,"M",2.5,0.383838383838384,30,4,1,"Gain",24,10,6,5.5,9.5,6
"1:567",67,"first_win","180",TRUE,"left",1,"4","first_time",0.85,"cd14","General","Restaurant",22,"M",2.5,0.383838383838384,30,4,1,"Gain",24,10,6,5.5,9.5,6
"1:568",68,"first_win","194",FALSE,"right",0.5,"3","first_time",0.8625,"cd14","General","Restaurant",22,"M",2.5,0.383838383838384,30,4,1,"Gain",24,10,6,5.5,9.5,6
"1:569",69,"first_win","355",FALSE,"right",0.5,"3","first_time",0.875,"cd14","General","Restaurant",22,"M",2.5,0.383838383838384,30,4,1,"Gain",24,10,6,5.5,9.5,6
"1:570",70,"first_win","256",TRUE,"left",0,"4","first_time",0.875,"cd14","General","Restaurant",22,"M",2.5,0.383838383838384,30,4,1,"Gain",24,10,6,5.5,9.5,6
"1:571",71,"first_win","211",FALSE,"right",0.5,"3","first_time",0.8875,"cd14","General","Restaurant",22,"M",2.5,0.383838383838384,30,4,0,"Gain",24,10,6,5.5,9.5,6
"1:572",72,"first_win","182",FALSE,"right",0.5,"3","first_time",0.9,"cd14","General","Restaurant",22,"M",2.5,0.383838383838384,30,4,0,"Gain",24,10,6,5.5,9.5,6
"1:573",73,"first_win","695",FALSE,"right",0.5,"3","first_time",0.9125,"cd14","General","Restaurant",22,"M",2.5,0.383838383838384,30,4,0,"Gain",24,10,6,5.5,9.5,6
"1:574",74,"first_win","256",TRUE,"left",1,"4","first_time",0.9375,"cd14","General","Restaurant",22,"M",2.5,0.383838383838384,30,4,0,"Gain",24,10,6,5.5,9.5,6
"1:575",75,"first_win","287",FALSE,"right",0.5,"3","first_time",0.95,"cd14","General","Restaurant",22,"M",2.5,0.383838383838384,30,4,1,"Gain",24,10,6,5.5,9.5,6
"1:576",76,"first_win","310",TRUE,"left",1,"4","first_time",0.975,"cd14","General","Restaurant",22,"M",2.5,0.383838383838384,30,4,1,"Gain",24,10,6,5.5,9.5,6
"1:577",77,"first_win","379",FALSE,"right",0.5,"3","first_time",0.9875,"cd14","General","Restaurant",22,"M",2.5,0.383838383838384,30,4,1,"Gain",24,10,6,5.5,9.5,6
"1:578",78,"first_win","265",TRUE,"left",0,"4","first_time",0.9875,"cd14","General","Restaurant",22,"M",2.5,0.383838383838384,30,4,1,"Gain",24,10,6,5.5,9.5,6
"1:579",79,"first_win","234",FALSE,"right",0.5,"3","first_time",1,"cd14","General","Restaurant",22,"M",2.5,0.383838383838384,30,4,0,"Gain",24,10,6,5.5,9.5,6
"1:580",80,"first_win","353",FALSE,"right",0.5,"3","first_time",1.0125,"cd14","General","Restaurant",22,"M",2.5,0.383838383838384,30,4,0,"Gain",24,10,6,5.5,9.5,6
"1:581",81,"first_win","486",FALSE,"right",0.5,"3","first_time",1.025,"cd14","General","Restaurant",22,"M",2.5,0.383838383838384,30,5,0,"Gain",24,10,6,5.5,9.5,6
"1:582",82,"first_win","379",TRUE,"left",0,"4","first_time",1.025,"cd14","General","Restaurant",22,"M",2.5,0.383838383838384,30,5,0,"Gain",24,10,6,5.5,9.5,6
"1:583",83,"first_win","192",FALSE,"right",0.5,"3","first_time",1.0375,"cd14","General","Restaurant",22,"M",2.5,0.383838383838384,30,5,0,"Gain",24,10,6,5.5,9.5,6
"1:584",84,"first_win","398",FALSE,"right",0.5,"3","first_time",1.05,"cd14","General","Restaurant",22,"M",2.5,0.383838383838384,30,5,0,"Gain",24,10,6,5.5,9.5,6
"1:585",85,"first_win","317",FALSE,"right",0.5,"3","first_time",1.0625,"cd14","General","Restaurant",22,"M",2.5,0.383838383838384,30,5,0,"Gain",24,10,6,5.5,9.5,6
"1:586",86,"first_win","370",FALSE,"right",0.5,"3","first_time",1.075,"cd14","General","Restaurant",22,"M",2.5,0.383838383838384,30,5,0,"Gain",24,10,6,5.5,9.5,6
"1:587",87,"first_win","401",TRUE,"left",0,"4","first_time",1.075,"cd14","General","Restaurant",22,"M",2.5,0.383838383838384,30,5,0,"Gain",24,10,6,5.5,9.5,6
"1:588",88,"first_win","288",FALSE,"right",0.5,"3","first_time",1.0875,"cd14","General","Restaurant",22,"M",2.5,0.383838383838384,30,5,0,"Gain",24,10,6,5.5,9.5,6
"1:589",89,"first_win","266",FALSE,"right",0.5,"3","first_time",1.1,"cd14","General","Restaurant",22,"M",2.5,0.383838383838384,30,5,0,"Gain",24,10,6,5.5,9.5,6
"1:590",90,"first_win","327",FALSE,"right",0.5,"3","first_time",1.1125,"cd14","General","Restaurant",22,"M",2.5,0.383838383838384,30,5,0,"Gain",24,10,6,5.5,9.5,6
"1:591",91,"first_win","429",FALSE,"right",0.5,"3","first_time",1.125,"cd14","General","Restaurant",22,"M",2.5,0.383838383838384,30,5,0,"Gain",24,10,6,5.5,9.5,6
"1:592",92,"first_win","295",FALSE,"right",0.5,"3","first_time",1.1375,"cd14","General","Restaurant",22,"M",2.5,0.383838383838384,30,5,0,"Gain",24,10,6,5.5,9.5,6
"1:593",93,"first_win","215",FALSE,"right",0.5,"3","first_time",1.15,"cd14","General","Restaurant",22,"M",2.5,0.383838383838384,30,5,0,"Gain",24,10,6,5.5,9.5,6
"1:594",94,"first_win","261",FALSE,"right",0.5,"3","first_time",1.1625,"cd14","General","Restaurant",22,"M",2.5,0.383838383838384,30,5,0,"Gain",24,10,6,5.5,9.5,6
"1:595",95,"first_win","233",FALSE,"right",0.5,"3","first_time",1.175,"cd14","General","Restaurant",22,"M",2.5,0.383838383838384,30,5,0,"Gain",24,10,6,5.5,9.5,6
"1:596",96,"first_win","967",FALSE,"right",0.5,"3","first_time",1.1875,"cd14","General","Restaurant",22,"M",2.5,0.383838383838384,30,5,0,"Gain",24,10,6,5.5,9.5,6
"1:597",97,"first_win","366",FALSE,"right",0.5,"3","first_time",1.2,"cd14","General","Restaurant",22,"M",2.5,0.383838383838384,30,5,0,"Gain",24,10,6,5.5,9.5,6
"1:598",98,"first_win","190",TRUE,"left",1,"4","first_time",1.225,"cd14","General","Restaurant",22,"M",2.5,0.383838383838384,30,5,0,"Gain",24,10,6,5.5,9.5,6
"1:599",99,"first_win","330",FALSE,"right",0.5,"3","first_time",1.2375,"cd14","General","Restaurant",22,"M",2.5,0.383838383838384,30,5,1,"Gain",24,10,6,5.5,9.5,6
"1:600",100,"first_win","183",TRUE,"left",1,"4","first_time",1.2625,"cd14","General","Restaurant",22,"M",2.5,0.383838383838384,30,5,1,"Gain",24,10,6,5.5,9.5,6
"1:601",1,"first_win","1248",TRUE,"left",1,"3","first_time",0.025,"cd15","General","Hospital",23,"F",0,0.151515151515152,50,1,NA,"Gain",30,15,5,6.5,9.5,5
"1:602",2,"first_win","775",FALSE,"right",0.5,"1","first_time",0.0375,"cd15","General","Hospital",23,"F",0,0.151515151515152,50,1,1,"Gain",30,15,5,6.5,9.5,5
"1:603",3,"first_win","877",FALSE,"right",0.5,"1","first_time",0.05,"cd15","General","Hospital",23,"F",0,0.151515151515152,50,1,1,"Gain",30,15,5,6.5,9.5,5
"1:604",4,"first_win","669",TRUE,"left",0,"3","first_time",0.05,"cd15","General","Hospital",23,"F",0,0.151515151515152,50,1,1,"Gain",30,15,5,6.5,9.5,5
"1:605",5,"first_win","863",TRUE,"left",1,"3","first_time",0.075,"cd15","General","Hospital",23,"F",0,0.151515151515152,50,1,0,"Gain",30,15,5,6.5,9.5,5
"1:606",6,"first_win","815",FALSE,"right",0.5,"1","first_time",0.0875,"cd15","General","Hospital",23,"F",0,0.151515151515152,50,1,1,"Gain",30,15,5,6.5,9.5,5
"1:607",7,"first_win","422",FALSE,"right",0.5,"1","first_time",0.1,"cd15","General","Hospital",23,"F",0,0.151515151515152,50,1,1,"Gain",30,15,5,6.5,9.5,5
"1:608",8,"first_win","733",FALSE,"right",0.5,"1","first_time",0.1125,"cd15","General","Hospital",23,"F",0,0.151515151515152,50,1,1,"Gain",30,15,5,6.5,9.5,5
"1:609",9,"first_win","323",TRUE,"left",0,"3","first_time",0.1125,"cd15","General","Hospital",23,"F",0,0.151515151515152,50,1,1,"Gain",30,15,5,6.5,9.5,5
"1:610",10,"first_win","506",TRUE,"left",1,"3","first_time",0.1375,"cd15","General","Hospital",23,"F",0,0.151515151515152,50,1,0,"Gain",30,15,5,6.5,9.5,5
"1:611",11,"first_win","391",FALSE,"right",0.5,"1","first_time",0.15,"cd15","General","Hospital",23,"F",0,0.151515151515152,50,1,1,"Gain",30,15,5,6.5,9.5,5
"1:612",12,"first_win","329",TRUE,"left",0,"3","first_time",0.15,"cd15","General","Hospital",23,"F",0,0.151515151515152,50,1,1,"Gain",30,15,5,6.5,9.5,5
"1:613",13,"first_win","489",TRUE,"left",1,"3","first_time",0.175,"cd15","General","Hospital",23,"F",0,0.151515151515152,50,1,0,"Gain",30,15,5,6.5,9.5,5
"1:614",14,"first_win","406",FALSE,"right",0.5,"1","first_time",0.1875,"cd15","General","Hospital",23,"F",0,0.151515151515152,50,1,1,"Gain",30,15,5,6.5,9.5,5
"1:615",15,"first_win","360",FALSE,"right",0.5,"1","first_time",0.2,"cd15","General","Hospital",23,"F",0,0.151515151515152,50,1,1,"Gain",30,15,5,6.5,9.5,5
"1:616",16,"first_win","505",TRUE,"left",0,"3","first_time",0.2,"cd15","General","Hospital",23,"F",0,0.151515151515152,50,1,1,"Gain",30,15,5,6.5,9.5,5
"1:617",17,"first_win","378",TRUE,"left",0,"3","first_time",0.2,"cd15","General","Hospital",23,"F",0,0.151515151515152,50,1,0,"Gain",30,15,5,6.5,9.5,5
"1:618",18,"first_win","507",FALSE,"right",0.5,"1","first_time",0.2125,"cd15","General","Hospital",23,"F",0,0.151515151515152,50,1,0,"Gain",30,15,5,6.5,9.5,5
"1:619",19,"first_win","435",FALSE,"right",0.5,"1","first_time",0.225,"cd15","General","Hospital",23,"F",0,0.151515151515152,50,1,0,"Gain",30,15,5,6.5,9.5,5
"1:620",20,"first_win","307",FALSE,"right",0.5,"1","first_time",0.2375,"cd15","General","Hospital",23,"F",0,0.151515151515152,50,1,0,"Gain",30,15,5,6.5,9.5,5
"1:621",21,"first_win","363",FALSE,"right",0.5,"1","first_time",0.25,"cd15","General","Hospital",23,"F",0,0.151515151515152,50,2,0,"Gain",30,15,5,6.5,9.5,5
"1:622",22,"first_win","368",FALSE,"right",0.5,"1","first_time",0.2625,"cd15","General","Hospital",23,"F",0,0.151515151515152,50,2,0,"Gain",30,15,5,6.5,9.5,5
"1:623",23,"first_win","453",FALSE,"right",0.5,"1","first_time",0.275,"cd15","General","Hospital",23,"F",0,0.151515151515152,50,2,0,"Gain",30,15,5,6.5,9.5,5
"1:624",24,"first_win","310",FALSE,"right",0.5,"1","first_time",0.2875,"cd15","General","Hospital",23,"F",0,0.151515151515152,50,2,0,"Gain",30,15,5,6.5,9.5,5
"1:625",25,"first_win","244",TRUE,"left",0,"3","first_time",0.2875,"cd15","General","Hospital",23,"F",0,0.151515151515152,50,2,0,"Gain",30,15,5,6.5,9.5,5
"1:626",26,"first_win","301",FALSE,"right",0.5,"1","first_time",0.3,"cd15","General","Hospital",23,"F",0,0.151515151515152,50,2,0,"Gain",30,15,5,6.5,9.5,5
"1:627",27,"first_win","307",FALSE,"right",0.5,"1","first_time",0.3125,"cd15","General","Hospital",23,"F",0,0.151515151515152,50,2,0,"Gain",30,15,5,6.5,9.5,5
"1:628",28,"first_win","402",FALSE,"right",0.5,"1","first_time",0.325,"cd15","General","Hospital",23,"F",0,0.151515151515152,50,2,0,"Gain",30,15,5,6.5,9.5,5
"1:629",29,"first_win","475",FALSE,"right",0.5,"1","first_time",0.3375,"cd15","General","Hospital",23,"F",0,0.151515151515152,50,2,0,"Gain",30,15,5,6.5,9.5,5
"1:630",30,"first_win","282",FALSE,"right",0.5,"1","first_time",0.35,"cd15","General","Hospital",23,"F",0,0.151515151515152,50,2,0,"Gain",30,15,5,6.5,9.5,5
"1:631",31,"first_win","346",FALSE,"right",0.5,"1","first_time",0.3625,"cd15","General","Hospital",23,"F",0,0.151515151515152,50,2,0,"Gain",30,15,5,6.5,9.5,5
"1:632",32,"first_win","357",FALSE,"right",0.5,"1","first_time",0.375,"cd15","General","Hospital",23,"F",0,0.151515151515152,50,2,0,"Gain",30,15,5,6.5,9.5,5
"1:633",33,"first_win","285",FALSE,"right",0.5,"1","first_time",0.3875,"cd15","General","Hospital",23,"F",0,0.151515151515152,50,2,0,"Gain",30,15,5,6.5,9.5,5
"1:634",34,"first_win","246",FALSE,"right",0.5,"1","first_time",0.4,"cd15","General","Hospital",23,"F",0,0.151515151515152,50,2,0,"Gain",30,15,5,6.5,9.5,5
"1:635",35,"first_win","264",FALSE,"right",0.5,"1","first_time",0.4125,"cd15","General","Hospital",23,"F",0,0.151515151515152,50,2,0,"Gain",30,15,5,6.5,9.5,5
"1:636",36,"first_win","234",TRUE,"left",0,"3","first_time",0.4125,"cd15","General","Hospital",23,"F",0,0.151515151515152,50,2,0,"Gain",30,15,5,6.5,9.5,5
"1:637",37,"first_win","610",FALSE,"right",0.5,"1","first_time",0.425,"cd15","General","Hospital",23,"F",0,0.151515151515152,50,2,0,"Gain",30,15,5,6.5,9.5,5
"1:638",38,"first_win","296",FALSE,"right",0.5,"1","first_time",0.4375,"cd15","General","Hospital",23,"F",0,0.151515151515152,50,2,0,"Gain",30,15,5,6.5,9.5,5
"1:639",39,"first_win","241",TRUE,"left",0,"3","first_time",0.4375,"cd15","General","Hospital",23,"F",0,0.151515151515152,50,2,0,"Gain",30,15,5,6.5,9.5,5
"1:640",40,"first_win","259",FALSE,"right",0.5,"1","first_time",0.45,"cd15","General","Hospital",23,"F",0,0.151515151515152,50,2,0,"Gain",30,15,5,6.5,9.5,5
"1:641",41,"first_win","411",FALSE,"right",0.5,"1","first_time",0.4625,"cd15","General","Hospital",23,"F",0,0.151515151515152,50,3,0,"Gain",30,15,5,6.5,9.5,5
"1:642",42,"first_win","-1",NA,NA,-1,NA,"first_time",0.4625,"cd15","General","Hospital",23,"F",0,0.151515151515152,50,3,0,"Gain",30,15,5,6.5,9.5,5
"1:643",43,"first_win","442",FALSE,"right",0.5,"1","first_time",0.475,"cd15","General","Hospital",23,"F",0,0.151515151515152,50,3,0,"Gain",30,15,5,6.5,9.5,5
"1:644",44,"first_win","313",FALSE,"right",0.5,"1","first_time",0.4875,"cd15","General","Hospital",23,"F",0,0.151515151515152,50,3,0,"Gain",30,15,5,6.5,9.5,5
"1:645",45,"first_win","345",FALSE,"right",0.5,"1","first_time",0.5,"cd15","General","Hospital",23,"F",0,0.151515151515152,50,3,0,"Gain",30,15,5,6.5,9.5,5
"1:646",46,"first_win","267",TRUE,"left",1,"3","first_time",0.525,"cd15","General","Hospital",23,"F",0,0.151515151515152,50,3,0,"Gain",30,15,5,6.5,9.5,5
"1:647",47,"first_win","303",FALSE,"right",0.5,"1","first_time",0.5375,"cd15","General","Hospital",23,"F",0,0.151515151515152,50,3,1,"Gain",30,15,5,6.5,9.5,5
"1:648",48,"first_win","628",FALSE,"right",0.5,"1","first_time",0.55,"cd15","General","Hospital",23,"F",0,0.151515151515152,50,3,1,"Gain",30,15,5,6.5,9.5,5
"1:649",49,"first_win","245",FALSE,"right",0.5,"1","first_time",0.5625,"cd15","General","Hospital",23,"F",0,0.151515151515152,50,3,1,"Gain",30,15,5,6.5,9.5,5
"1:650",50,"first_win","285",FALSE,"right",0.5,"1","first_time",0.575,"cd15","General","Hospital",23,"F",0,0.151515151515152,50,3,1,"Gain",30,15,5,6.5,9.5,5
"1:651",51,"first_win","588",FALSE,"right",0.5,"1","first_time",0.5875,"cd15","General","Hospital",23,"F",0,0.151515151515152,50,3,1,"Gain",30,15,5,6.5,9.5,5
"1:652",52,"first_win","265",FALSE,"right",0.5,"1","first_time",0.6,"cd15","General","Hospital",23,"F",0,0.151515151515152,50,3,1,"Gain",30,15,5,6.5,9.5,5
"1:653",53,"first_win","208",FALSE,"right",0.5,"1","first_time",0.6125,"cd15","General","Hospital",23,"F",0,0.151515151515152,50,3,1,"Gain",30,15,5,6.5,9.5,5
"1:654",54,"first_win","191",FALSE,"right",0.5,"1","first_time",0.625,"cd15","General","Hospital",23,"F",0,0.151515151515152,50,3,1,"Gain",30,15,5,6.5,9.5,5
"1:655",55,"first_win","285",FALSE,"right",0.5,"1","first_time",0.6375,"cd15","General","Hospital",23,"F",0,0.151515151515152,50,3,1,"Gain",30,15,5,6.5,9.5,5
"1:656",56,"first_win","226",FALSE,"right",0.5,"1","first_time",0.65,"cd15","General","Hospital",23,"F",0,0.151515151515152,50,3,1,"Gain",30,15,5,6.5,9.5,5
"1:657",57,"first_win","346",FALSE,"right",0.5,"1","first_time",0.6625,"cd15","General","Hospital",23,"F",0,0.151515151515152,50,3,1,"Gain",30,15,5,6.5,9.5,5
"1:658",58,"first_win","274",FALSE,"right",0.5,"1","first_time",0.675,"cd15","General","Hospital",23,"F",0,0.151515151515152,50,3,1,"Gain",30,15,5,6.5,9.5,5
"1:659",59,"first_win","287",FALSE,"right",0.5,"1","first_time",0.6875,"cd15","General","Hospital",23,"F",0,0.151515151515152,50,3,1,"Gain",30,15,5,6.5,9.5,5
"1:660",60,"first_win","309",FALSE,"right",0.5,"1","first_time",0.7,"cd15","General","Hospital",23,"F",0,0.151515151515152,50,3,1,"Gain",30,15,5,6.5,9.5,5
"1:661",61,"first_win","516",FALSE,"right",0.5,"1","first_time",0.7125,"cd15","General","Hospital",23,"F",0,0.151515151515152,50,4,1,"Gain",30,15,5,6.5,9.5,5
"1:662",62,"first_win","291",FALSE,"right",0.5,"1","first_time",0.725,"cd15","General","Hospital",23,"F",0,0.151515151515152,50,4,1,"Gain",30,15,5,6.5,9.5,5
"1:663",63,"first_win","493",FALSE,"right",0.5,"1","first_time",0.7375,"cd15","General","Hospital",23,"F",0,0.151515151515152,50,4,1,"Gain",30,15,5,6.5,9.5,5
"1:664",64,"first_win","291",FALSE,"right",0.5,"1","first_time",0.75,"cd15","General","Hospital",23,"F",0,0.151515151515152,50,4,1,"Gain",30,15,5,6.5,9.5,5
"1:665",65,"first_win","432",FALSE,"right",0.5,"1","first_time",0.7625,"cd15","General","Hospital",23,"F",0,0.151515151515152,50,4,1,"Gain",30,15,5,6.5,9.5,5
"1:666",66,"first_win","337",FALSE,"right",0.5,"1","first_time",0.775,"cd15","General","Hospital",23,"F",0,0.151515151515152,50,4,1,"Gain",30,15,5,6.5,9.5,5
