"","trial","outcome_condition","rt","chose_risky","key_pressed","reward","color","session","total_earned","participant","condition","video","age","gender","risk_first_to_mind","total_risk","judged_percent","block","last_risk","experiment"
"1",1,"first_win","1993",TRUE,"left",1,"4","first_time",0.025,"cd1","General","Restaurant",31,"F",2.5,0.43,0,1,NA,"Gain"
"2",2,"first_win","1273",TRUE,"left",0,"4","first_time",0.025,"cd1","General","Restaurant",31,"F",2.5,0.43,0,1,1,"Gain"
"3",3,"first_win","1050",TRUE,"left",1,"4","first_time",0.05,"cd1","General","Restaurant",31,"F",2.5,0.43,0,1,0,"Gain"
"4",4,"first_win","3005",TRUE,"left",0,"4","first_time",0.05,"cd1","General","Restaurant",31,"F",2.5,0.43,0,1,1,"Gain"
"5",5,"first_win","379",TRUE,"left",1,"4","first_time",0.075,"cd1","General","Restaurant",31,"F",2.5,0.43,0,1,0,"Gain"
"6",6,"first_win","787",FALSE,"right",0.5,"3","first_time",0.0875,"cd1","General","Restaurant",31,"F",2.5,0.43,0,1,1,"Gain"
"7",7,"first_win","913",TRUE,"left",0,"4","first_time",0.0875,"cd1","General","Restaurant",31,"F",2.5,0.43,0,1,1,"Gain"
"8",8,"first_win","271",TRUE,"left",0,"4","first_time",0.0875,"cd1","General","Restaurant",31,"F",2.5,0.43,0,1,0,"Gain"
"9",9,"first_win","715",TRUE,"left",0,"4","first_time",0.0875,"cd1","General","Restaurant",31,"F",2.5,0.43,0,1,0,"Gain"
"10",10,"first_win","1699",TRUE,"left",1,"4","first_time",0.1125,"cd1","General","Restaurant",31,"F",2.5,0.43,0,1,0,"Gain"
"11",11,"first_win","424",FALSE,"right",0.5,"3","first_time",0.125,"cd1","General","Restaurant",31,"F",2.5,0.43,0,1,1,"Gain"
"12",12,"first_win","457",FALSE,"right",0.5,"3","first_time",0.1375,"cd1","General","Restaurant",31,"F",2.5,0.43,0,1,1,"Gain"
"13",13,"first_win","559",FALSE,"right",0.5,"3","first_time",0.15,"cd1","General","Restaurant",31,"F",2.5,0.43,0,1,1,"Gain"
"14",14,"first_win","581",TRUE,"left",1,"4","first_time",0.175,"cd1","General","Restaurant",31,"F",2.5,0.43,0,1,1,"Gain"
"15",15,"first_win","363",FALSE,"right",0.5,"3","first_time",0.1875,"cd1","General","Restaurant",31,"F",2.5,0.43,0,1,1,"Gain"
"16",16,"first_win","579",FALSE,"right",0.5,"3","first_time",0.2,"cd1","General","Restaurant",31,"F",2.5,0.43,0,1,1,"Gain"
"17",17,"first_win","536",FALSE,"right",0.5,"3","first_time",0.2125,"cd1","General","Restaurant",31,"F",2.5,0.43,0,1,1,"Gain"
"18",18,"first_win","346",TRUE,"left",1,"4","first_time",0.2375,"cd1","General","Restaurant",31,"F",2.5,0.43,0,1,1,"Gain"
"19",19,"first_win","520",FALSE,"right",0.5,"3","first_time",0.25,"cd1","General","Restaurant",31,"F",2.5,0.43,0,1,1,"Gain"
"20",20,"first_win","478",FALSE,"right",0.5,"3","first_time",0.2625,"cd1","General","Restaurant",31,"F",2.5,0.43,0,1,1,"Gain"
"21",21,"first_win","484",FALSE,"right",0.5,"3","first_time",0.275,"cd1","General","Restaurant",31,"F",2.5,0.43,0,2,1,"Gain"
"22",22,"first_win","425",TRUE,"left",1,"4","first_time",0.3,"cd1","General","Restaurant",31,"F",2.5,0.43,0,2,1,"Gain"
"23",23,"first_win","1599",TRUE,"left",0,"4","first_time",0.3,"cd1","General","Restaurant",31,"F",2.5,0.43,0,2,1,"Gain"
"24",24,"first_win","529",FALSE,"right",0.5,"3","first_time",0.3125,"cd1","General","Restaurant",31,"F",2.5,0.43,0,2,0,"Gain"
"25",25,"first_win","471",FALSE,"right",0.5,"3","first_time",0.325,"cd1","General","Restaurant",31,"F",2.5,0.43,0,2,0,"Gain"
"26",26,"first_win","406",TRUE,"left",1,"4","first_time",0.35,"cd1","General","Restaurant",31,"F",2.5,0.43,0,2,0,"Gain"
"27",27,"first_win","306",FALSE,"right",0.5,"3","first_time",0.3625,"cd1","General","Restaurant",31,"F",2.5,0.43,0,2,1,"Gain"
"28",28,"first_win","427",FALSE,"right",0.5,"3","first_time",0.375,"cd1","General","Restaurant",31,"F",2.5,0.43,0,2,1,"Gain"
"29",29,"first_win","428",FALSE,"right",0.5,"3","first_time",0.3875,"cd1","General","Restaurant",31,"F",2.5,0.43,0,2,1,"Gain"
"30",30,"first_win","303",TRUE,"left",0,"4","first_time",0.3875,"cd1","General","Restaurant",31,"F",2.5,0.43,0,2,1,"Gain"
"31",31,"first_win","379",TRUE,"left",0,"4","first_time",0.3875,"cd1","General","Restaurant",31,"F",2.5,0.43,0,2,0,"Gain"
"32",32,"first_win","211",TRUE,"left",1,"4","first_time",0.4125,"cd1","General","Restaurant",31,"F",2.5,0.43,0,2,0,"Gain"
"33",33,"first_win","440",FALSE,"right",0.5,"3","first_time",0.425,"cd1","General","Restaurant",31,"F",2.5,0.43,0,2,1,"Gain"
"34",34,"first_win","340",FALSE,"right",0.5,"3","first_time",0.4375,"cd1","General","Restaurant",31,"F",2.5,0.43,0,2,1,"Gain"
"35",35,"first_win","304",TRUE,"left",0,"4","first_time",0.4375,"cd1","General","Restaurant",31,"F",2.5,0.43,0,2,1,"Gain"
"36",36,"first_win","250",TRUE,"left",0,"4","first_time",0.4375,"cd1","General","Restaurant",31,"F",2.5,0.43,0,2,0,"Gain"
"37",37,"first_win","977",TRUE,"left",1,"4","first_time",0.4625,"cd1","General","Restaurant",31,"F",2.5,0.43,0,2,0,"Gain"
"38",38,"first_win","348",FALSE,"right",0.5,"3","first_time",0.475,"cd1","General","Restaurant",31,"F",2.5,0.43,0,2,1,"Gain"
"39",39,"first_win","354",FALSE,"right",0.5,"3","first_time",0.4875,"cd1","General","Restaurant",31,"F",2.5,0.43,0,2,1,"Gain"
"40",40,"first_win","344",TRUE,"left",0,"4","first_time",0.4875,"cd1","General","Restaurant",31,"F",2.5,0.43,0,2,1,"Gain"
"41",41,"first_win","286",FALSE,"right",0.5,"3","first_time",0.5,"cd1","General","Restaurant",31,"F",2.5,0.43,0,3,0,"Gain"
"42",42,"first_win","793",FALSE,"right",0.5,"3","first_time",0.5125,"cd1","General","Restaurant",31,"F",2.5,0.43,0,3,0,"Gain"
"43",43,"first_win","367",TRUE,"left",0,"4","first_time",0.5125,"cd1","General","Restaurant",31,"F",2.5,0.43,0,3,0,"Gain"
"44",44,"first_win","272",FALSE,"right",0.5,"3","first_time",0.525,"cd1","General","Restaurant",31,"F",2.5,0.43,0,3,0,"Gain"
"45",45,"first_win","593",FALSE,"right",0.5,"3","first_time",0.5375,"cd1","General","Restaurant",31,"F",2.5,0.43,0,3,0,"Gain"
"46",46,"first_win","416",TRUE,"left",1,"4","first_time",0.5625,"cd1","General","Restaurant",31,"F",2.5,0.43,0,3,0,"Gain"
"47",47,"first_win","374",FALSE,"right",0.5,"3","first_time",0.575,"cd1","General","Restaurant",31,"F",2.5,0.43,0,3,1,"Gain"
"48",48,"first_win","307",FALSE,"right",0.5,"3","first_time",0.5875,"cd1","General","Restaurant",31,"F",2.5,0.43,0,3,1,"Gain"
"49",49,"first_win","327",FALSE,"right",0.5,"3","first_time",0.6,"cd1","General","Restaurant",31,"F",2.5,0.43,0,3,1,"Gain"
"50",50,"first_win","267",FALSE,"right",0.5,"3","first_time",0.6125,"cd1","General","Restaurant",31,"F",2.5,0.43,0,3,1,"Gain"
"51",51,"first_win","336",TRUE,"left",0,"4","first_time",0.6125,"cd1","General","Restaurant",31,"F",2.5,0.43,0,3,1,"Gain"
"52",52,"first_win","457",TRUE,"left",1,"4","first_time",0.6375,"cd1","General","Restaurant",31,"F",2.5,0.43,0,3,0,"Gain"
"53",53,"first_win","334",FALSE,"right",0.5,"3","first_time",0.65,"cd1","General","Restaurant",31,"F",2.5,0.43,0,3,1,"Gain"
"54",54,"first_win","563",TRUE,"left",0,"4","first_time",0.65,"cd1","General","Restaurant",31,"F",2.5,0.43,0,3,1,"Gain"
"55",55,"first_win","303",TRUE,"left",1,"4","first_time",0.675,"cd1","General","Restaurant",31,"F",2.5,0.43,0,3,0,"Gain"
"56",56,"first_win","450",FALSE,"right",0.5,"3","first_time",0.6875,"cd1","General","Restaurant",31,"F",2.5,0.43,0,3,1,"Gain"
"57",57,"first_win","381",FALSE,"right",0.5,"3","first_time",0.7,"cd1","General","Restaurant",31,"F",2.5,0.43,0,3,1,"Gain"
"58",58,"first_win","583",FALSE,"right",0.5,"3","first_time",0.7125,"cd1","General","Restaurant",31,"F",2.5,0.43,0,3,1,"Gain"
"59",59,"first_win","243",TRUE,"left",0,"4","first_time",0.7125,"cd1","General","Restaurant",31,"F",2.5,0.43,0,3,1,"Gain"
"60",60,"first_win","267",TRUE,"left",0,"4","first_time",0.7125,"cd1","General","Restaurant",31,"F",2.5,0.43,0,3,0,"Gain"
"61",61,"first_win","2441",TRUE,"left",1,"4","first_time",0.7375,"cd1","General","Restaurant",31,"F",2.5,0.43,0,4,0,"Gain"
"62",62,"first_win","463",TRUE,"left",0,"4","first_time",0.7375,"cd1","General","Restaurant",31,"F",2.5,0.43,0,4,1,"Gain"
"63",63,"first_win","351",FALSE,"right",0.5,"3","first_time",0.75,"cd1","General","Restaurant",31,"F",2.5,0.43,0,4,0,"Gain"
"64",64,"first_win","711",FALSE,"right",0.5,"3","first_time",0.7625,"cd1","General","Restaurant",31,"F",2.5,0.43,0,4,0,"Gain"
"65",65,"first_win","275",FALSE,"right",0.5,"3","first_time",0.775,"cd1","General","Restaurant",31,"F",2.5,0.43,0,4,0,"Gain"
"66",66,"first_win","551",FALSE,"right",0.5,"3","first_time",0.7875,"cd1","General","Restaurant",31,"F",2.5,0.43,0,4,0,"Gain"
"67",67,"first_win","275",TRUE,"left",1,"4","first_time",0.8125,"cd1","General","Restaurant",31,"F",2.5,0.43,0,4,0,"Gain"
"68",68,"first_win","388",FALSE,"right",0.5,"3","first_time",0.825,"cd1","General","Restaurant",31,"F",2.5,0.43,0,4,1,"Gain"
"69",69,"first_win","742",FALSE,"right",0.5,"3","first_time",0.8375,"cd1","General","Restaurant",31,"F",2.5,0.43,0,4,1,"Gain"
"70",70,"first_win","395",FALSE,"right",0.5,"3","first_time",0.85,"cd1","General","Restaurant",31,"F",2.5,0.43,0,4,1,"Gain"
"71",71,"first_win","496",TRUE,"left",1,"4","first_time",0.875,"cd1","General","Restaurant",31,"F",2.5,0.43,0,4,1,"Gain"
"72",72,"first_win","400",FALSE,"right",0.5,"3","first_time",0.8875,"cd1","General","Restaurant",31,"F",2.5,0.43,0,4,1,"Gain"
"73",73,"first_win","271",FALSE,"right",0.5,"3","first_time",0.9,"cd1","General","Restaurant",31,"F",2.5,0.43,0,4,1,"Gain"
"74",74,"first_win","293",FALSE,"right",0.5,"3","first_time",0.9125,"cd1","General","Restaurant",31,"F",2.5,0.43,0,4,1,"Gain"
"75",75,"first_win","368",FALSE,"right",0.5,"3","first_time",0.925,"cd1","General","Restaurant",31,"F",2.5,0.43,0,4,1,"Gain"
"76",76,"first_win","284",TRUE,"left",1,"4","first_time",0.95,"cd1","General","Restaurant",31,"F",2.5,0.43,0,4,1,"Gain"
"77",77,"first_win","272",FALSE,"right",0.5,"3","first_time",0.9625,"cd1","General","Restaurant",31,"F",2.5,0.43,0,4,1,"Gain"
"78",78,"first_win","246",FALSE,"right",0.5,"3","first_time",0.975,"cd1","General","Restaurant",31,"F",2.5,0.43,0,4,1,"Gain"
"79",79,"first_win","377",FALSE,"right",0.5,"3","first_time",0.9875,"cd1","General","Restaurant",31,"F",2.5,0.43,0,4,1,"Gain"
"80",80,"first_win","1028",TRUE,"left",1,"4","first_time",1.0125,"cd1","General","Restaurant",31,"F",2.5,0.43,0,4,1,"Gain"
"81",81,"first_win","294",FALSE,"right",0.5,"3","first_time",1.025,"cd1","General","Restaurant",31,"F",2.5,0.43,0,5,1,"Gain"
"82",82,"first_win","298",FALSE,"right",0.5,"3","first_time",1.0375,"cd1","General","Restaurant",31,"F",2.5,0.43,0,5,1,"Gain"
"83",83,"first_win","253",FALSE,"right",0.5,"3","first_time",1.05,"cd1","General","Restaurant",31,"F",2.5,0.43,0,5,1,"Gain"
"84",84,"first_win","242",TRUE,"left",0,"4","first_time",1.05,"cd1","General","Restaurant",31,"F",2.5,0.43,0,5,1,"Gain"
"85",85,"first_win","270",TRUE,"left",1,"4","first_time",1.075,"cd1","General","Restaurant",31,"F",2.5,0.43,0,5,0,"Gain"
"86",86,"first_win","282",FALSE,"right",0.5,"3","first_time",1.0875,"cd1","General","Restaurant",31,"F",2.5,0.43,0,5,1,"Gain"
"87",87,"first_win","372",FALSE,"right",0.5,"3","first_time",1.1,"cd1","General","Restaurant",31,"F",2.5,0.43,0,5,1,"Gain"
"88",88,"first_win","394",FALSE,"right",0.5,"3","first_time",1.1125,"cd1","General","Restaurant",31,"F",2.5,0.43,0,5,1,"Gain"
"89",89,"first_win","628",FALSE,"right",0.5,"3","first_time",1.125,"cd1","General","Restaurant",31,"F",2.5,0.43,0,5,1,"Gain"
"90",90,"first_win","529",TRUE,"left",1,"4","first_time",1.15,"cd1","General","Restaurant",31,"F",2.5,0.43,0,5,1,"Gain"
"91",91,"first_win","569",FALSE,"right",0.5,"3","first_time",1.1625,"cd1","General","Restaurant",31,"F",2.5,0.43,0,5,1,"Gain"
"92",92,"first_win","342",FALSE,"right",0.5,"3","first_time",1.175,"cd1","General","Restaurant",31,"F",2.5,0.43,0,5,1,"Gain"
"93",93,"first_win","308",FALSE,"right",0.5,"3","first_time",1.1875,"cd1","General","Restaurant",31,"F",2.5,0.43,0,5,1,"Gain"
"94",94,"first_win","193",FALSE,"right",0.5,"3","first_time",1.2,"cd1","General","Restaurant",31,"F",2.5,0.43,0,5,1,"Gain"
"95",95,"first_win","296",TRUE,"left",0,"4","first_time",1.2,"cd1","General","Restaurant",31,"F",2.5,0.43,0,5,1,"Gain"
"96",96,"first_win","170",TRUE,"left",0,"4","first_time",1.2,"cd1","General","Restaurant",31,"F",2.5,0.43,0,5,0,"Gain"
"97",97,"first_win","272",TRUE,"left",0,"4","first_time",1.2,"cd1","General","Restaurant",31,"F",2.5,0.43,0,5,0,"Gain"
"98",98,"first_win","413",TRUE,"left",0,"4","first_time",1.2,"cd1","General","Restaurant",31,"F",2.5,0.43,0,5,0,"Gain"
"99",99,"first_win","486",TRUE,"left",0,"4","first_time",1.2,"cd1","General","Restaurant",31,"F",2.5,0.43,0,5,0,"Gain"
"100",100,"first_win","74",FALSE,"right",0.5,"3","first_time",1.2125,"cd1","General","Restaurant",31,"F",2.5,0.43,0,5,0,"Gain"
"220",1,"second_win","-1",NA,NA,-1,NA,"first_time",0,"cd2","General","Restaurant",34,"F",0,0.303030303030303,0,1,NA,"Gain"
"221",2,"second_win","1238",TRUE,"right",0,"4","first_time",0,"cd2","General","Restaurant",34,"F",0,0.303030303030303,0,1,NA,"Gain"
"222",3,"second_win","2064",FALSE,"left",0.5,"2","first_time",0.0125,"cd2","General","Restaurant",34,"F",0,0.303030303030303,0,1,0,"Gain"
"223",4,"second_win","1918",FALSE,"left",0.5,"2","first_time",0.025,"cd2","General","Restaurant",34,"F",0,0.303030303030303,0,1,0,"Gain"
"224",5,"second_win","1402",TRUE,"right",1,"4","first_time",0.05,"cd2","General","Restaurant",34,"F",0,0.303030303030303,0,1,0,"Gain"
"225",6,"second_win","1416",FALSE,"left",0.5,"2","first_time",0.0625,"cd2","General","Restaurant",34,"F",0,0.303030303030303,0,1,1,"Gain"
"226",7,"second_win","1522",TRUE,"right",0,"4","first_time",0.0625,"cd2","General","Restaurant",34,"F",0,0.303030303030303,0,1,1,"Gain"
"227",8,"second_win","824",FALSE,"left",0.5,"2","first_time",0.075,"cd2","General","Restaurant",34,"F",0,0.303030303030303,0,1,0,"Gain"
"228",9,"second_win","1760",TRUE,"right",1,"4","first_time",0.1,"cd2","General","Restaurant",34,"F",0,0.303030303030303,0,1,0,"Gain"
"229",10,"second_win","724",TRUE,"right",0,"4","first_time",0.1,"cd2","General","Restaurant",34,"F",0,0.303030303030303,0,1,1,"Gain"
"230",11,"second_win","431",FALSE,"left",0.5,"2","first_time",0.1125,"cd2","General","Restaurant",34,"F",0,0.303030303030303,0,1,0,"Gain"
"231",12,"second_win","463",FALSE,"left",0.5,"2","first_time",0.125,"cd2","General","Restaurant",34,"F",0,0.303030303030303,0,1,0,"Gain"
"232",13,"second_win","1086",FALSE,"left",0.5,"2","first_time",0.1375,"cd2","General","Restaurant",34,"F",0,0.303030303030303,0,1,0,"Gain"
"233",14,"second_win","451",TRUE,"right",1,"4","first_time",0.1625,"cd2","General","Restaurant",34,"F",0,0.303030303030303,0,1,0,"Gain"
"234",15,"second_win","397",FALSE,"left",0.5,"2","first_time",0.175,"cd2","General","Restaurant",34,"F",0,0.303030303030303,0,1,1,"Gain"
"235",16,"second_win","593",TRUE,"right",0,"4","first_time",0.175,"cd2","General","Restaurant",34,"F",0,0.303030303030303,0,1,1,"Gain"
"236",17,"second_win","645",TRUE,"right",0,"4","first_time",0.175,"cd2","General","Restaurant",34,"F",0,0.303030303030303,0,1,0,"Gain"
"237",18,"second_win","394",TRUE,"right",0,"4","first_time",0.175,"cd2","General","Restaurant",34,"F",0,0.303030303030303,0,1,0,"Gain"
"238",19,"second_win","301",FALSE,"left",0.5,"2","first_time",0.1875,"cd2","General","Restaurant",34,"F",0,0.303030303030303,0,1,0,"Gain"
"239",20,"second_win","433",FALSE,"left",0.5,"2","first_time",0.2,"cd2","General","Restaurant",34,"F",0,0.303030303030303,0,1,0,"Gain"
"240",21,"second_win","537",FALSE,"left",0.5,"2","first_time",0.2125,"cd2","General","Restaurant",34,"F",0,0.303030303030303,0,2,0,"Gain"
"241",22,"second_win","476",TRUE,"right",1,"4","first_time",0.2375,"cd2","General","Restaurant",34,"F",0,0.303030303030303,0,2,0,"Gain"
"242",23,"second_win","505",FALSE,"left",0.5,"2","first_time",0.25,"cd2","General","Restaurant",34,"F",0,0.303030303030303,0,2,1,"Gain"
"243",24,"second_win","861",FALSE,"left",0.5,"2","first_time",0.2625,"cd2","General","Restaurant",34,"F",0,0.303030303030303,0,2,1,"Gain"
"244",25,"second_win","816",FALSE,"left",0.5,"2","first_time",0.275,"cd2","General","Restaurant",34,"F",0,0.303030303030303,0,2,1,"Gain"
"245",26,"second_win","1387",TRUE,"right",1,"4","first_time",0.3,"cd2","General","Restaurant",34,"F",0,0.303030303030303,0,2,1,"Gain"
"246",27,"second_win","351",FALSE,"left",0.5,"2","first_time",0.3125,"cd2","General","Restaurant",34,"F",0,0.303030303030303,0,2,1,"Gain"
"247",28,"second_win","276",FALSE,"left",0.5,"2","first_time",0.325,"cd2","General","Restaurant",34,"F",0,0.303030303030303,0,2,1,"Gain"
"248",29,"second_win","1",FALSE,"left",0.5,"2","first_time",0.3375,"cd2","General","Restaurant",34,"F",0,0.303030303030303,0,2,1,"Gain"
"249",30,"second_win","242",TRUE,"right",0,"4","first_time",0.3375,"cd2","General","Restaurant",34,"F",0,0.303030303030303,0,2,1,"Gain"
"250",31,"second_win","470",FALSE,"left",0.5,"2","first_time",0.35,"cd2","General","Restaurant",34,"F",0,0.303030303030303,0,2,0,"Gain"
"251",32,"second_win","632",TRUE,"right",1,"4","first_time",0.375,"cd2","General","Restaurant",34,"F",0,0.303030303030303,0,2,0,"Gain"
"252",33,"second_win","364",FALSE,"left",0.5,"2","first_time",0.3875,"cd2","General","Restaurant",34,"F",0,0.303030303030303,0,2,1,"Gain"
"253",34,"second_win","905",FALSE,"left",0.5,"2","first_time",0.4,"cd2","General","Restaurant",34,"F",0,0.303030303030303,0,2,1,"Gain"
"254",35,"second_win","735",TRUE,"right",0,"4","first_time",0.4,"cd2","General","Restaurant",34,"F",0,0.303030303030303,0,2,1,"Gain"
"255",36,"second_win","346",FALSE,"left",0.5,"2","first_time",0.4125,"cd2","General","Restaurant",34,"F",0,0.303030303030303,0,2,0,"Gain"
"256",37,"second_win","423",FALSE,"left",0.5,"2","first_time",0.425,"cd2","General","Restaurant",34,"F",0,0.303030303030303,0,2,0,"Gain"
"257",38,"second_win","532",FALSE,"left",0.5,"2","first_time",0.4375,"cd2","General","Restaurant",34,"F",0,0.303030303030303,0,2,0,"Gain"
"258",39,"second_win","494",FALSE,"left",0.5,"2","first_time",0.45,"cd2","General","Restaurant",34,"F",0,0.303030303030303,0,2,0,"Gain"
"259",40,"second_win","279",TRUE,"right",0,"4","first_time",0.45,"cd2","General","Restaurant",34,"F",0,0.303030303030303,0,2,0,"Gain"
"260",41,"second_win","297",FALSE,"left",0.5,"2","first_time",0.4625,"cd2","General","Restaurant",34,"F",0,0.303030303030303,0,3,0,"Gain"
"261",42,"second_win","325",TRUE,"right",1,"4","first_time",0.4875,"cd2","General","Restaurant",34,"F",0,0.303030303030303,0,3,0,"Gain"
"262",43,"second_win","545",FALSE,"left",0.5,"2","first_time",0.5,"cd2","General","Restaurant",34,"F",0,0.303030303030303,0,3,1,"Gain"
"263",44,"second_win","551",FALSE,"left",0.5,"2","first_time",0.5125,"cd2","General","Restaurant",34,"F",0,0.303030303030303,0,3,1,"Gain"
"264",45,"second_win","716",TRUE,"right",0,"4","first_time",0.5125,"cd2","General","Restaurant",34,"F",0,0.303030303030303,0,3,1,"Gain"
"265",46,"second_win","268",FALSE,"left",0.5,"2","first_time",0.525,"cd2","General","Restaurant",34,"F",0,0.303030303030303,0,3,0,"Gain"
"266",47,"second_win","551",FALSE,"left",0.5,"2","first_time",0.5375,"cd2","General","Restaurant",34,"F",0,0.303030303030303,0,3,0,"Gain"
"267",48,"second_win","277",FALSE,"left",0.5,"2","first_time",0.55,"cd2","General","Restaurant",34,"F",0,0.303030303030303,0,3,0,"Gain"
"268",49,"second_win","357",FALSE,"left",0.5,"2","first_time",0.5625,"cd2","General","Restaurant",34,"F",0,0.303030303030303,0,3,0,"Gain"
"269",50,"second_win","565",TRUE,"right",1,"4","first_time",0.5875,"cd2","General","Restaurant",34,"F",0,0.303030303030303,0,3,0,"Gain"
"270",51,"second_win","392",FALSE,"left",0.5,"2","first_time",0.6,"cd2","General","Restaurant",34,"F",0,0.303030303030303,0,3,1,"Gain"
"271",52,"second_win","1061",FALSE,"left",0.5,"2","first_time",0.6125,"cd2","General","Restaurant",34,"F",0,0.303030303030303,0,3,1,"Gain"
"272",53,"second_win","772",TRUE,"right",0,"4","first_time",0.6125,"cd2","General","Restaurant",34,"F",0,0.303030303030303,0,3,1,"Gain"
"273",54,"second_win","311",FALSE,"left",0.5,"2","first_time",0.625,"cd2","General","Restaurant",34,"F",0,0.303030303030303,0,3,0,"Gain"
"274",55,"second_win","595",FALSE,"left",0.5,"2","first_time",0.6375,"cd2","General","Restaurant",34,"F",0,0.303030303030303,0,3,0,"Gain"
"275",56,"second_win","501",FALSE,"left",0.5,"2","first_time",0.65,"cd2","General","Restaurant",34,"F",0,0.303030303030303,0,3,0,"Gain"
"276",57,"second_win","659",TRUE,"right",1,"4","first_time",0.675,"cd2","General","Restaurant",34,"F",0,0.303030303030303,0,3,0,"Gain"
"277",58,"second_win","374",FALSE,"left",0.5,"2","first_time",0.6875,"cd2","General","Restaurant",34,"F",0,0.303030303030303,0,3,1,"Gain"
"278",59,"second_win","383",FALSE,"left",0.5,"2","first_time",0.7,"cd2","General","Restaurant",34,"F",0,0.303030303030303,0,3,1,"Gain"
"279",60,"second_win","304",FALSE,"left",0.5,"2","first_time",0.7125,"cd2","General","Restaurant",34,"F",0,0.303030303030303,0,3,1,"Gain"
"280",61,"second_win","277",FALSE,"left",0.5,"2","first_time",0.725,"cd2","General","Restaurant",34,"F",0,0.303030303030303,0,4,1,"Gain"
"281",62,"second_win","382",FALSE,"left",0.5,"2","first_time",0.7375,"cd2","General","Restaurant",34,"F",0,0.303030303030303,0,4,1,"Gain"
"282",63,"second_win","769",FALSE,"left",0.5,"2","first_time",0.75,"cd2","General","Restaurant",34,"F",0,0.303030303030303,0,4,1,"Gain"
"283",64,"second_win","902",TRUE,"right",0,"4","first_time",0.75,"cd2","General","Restaurant",34,"F",0,0.303030303030303,0,4,1,"Gain"
"284",65,"second_win","465",FALSE,"left",0.5,"2","first_time",0.7625,"cd2","General","Restaurant",34,"F",0,0.303030303030303,0,4,0,"Gain"
"285",66,"second_win","381",FALSE,"left",0.5,"2","first_time",0.775,"cd2","General","Restaurant",34,"F",0,0.303030303030303,0,4,0,"Gain"
"286",67,"second_win","289",TRUE,"right",0,"4","first_time",0.775,"cd2","General","Restaurant",34,"F",0,0.303030303030303,0,4,0,"Gain"
"287",68,"second_win","369",FALSE,"left",0.5,"2","first_time",0.7875,"cd2","General","Restaurant",34,"F",0,0.303030303030303,0,4,0,"Gain"
"288",69,"second_win","575",TRUE,"right",0,"4","first_time",0.7875,"cd2","General","Restaurant",34,"F",0,0.303030303030303,0,4,0,"Gain"
"289",70,"second_win","323",FALSE,"left",0.5,"2","first_time",0.8,"cd2","General","Restaurant",34,"F",0,0.303030303030303,0,4,0,"Gain"
"290",71,"second_win","215",FALSE,"left",0.5,"2","first_time",0.8125,"cd2","General","Restaurant",34,"F",0,0.303030303030303,0,4,0,"Gain"
"291",72,"second_win","348",FALSE,"left",0.5,"2","first_time",0.825,"cd2","General","Restaurant",34,"F",0,0.303030303030303,0,4,0,"Gain"
"292",73,"second_win","248",FALSE,"left",0.5,"2","first_time",0.8375,"cd2","General","Restaurant",34,"F",0,0.303030303030303,0,4,0,"Gain"
"293",74,"second_win","221",FALSE,"left",0.5,"2","first_time",0.85,"cd2","General","Restaurant",34,"F",0,0.303030303030303,0,4,0,"Gain"
"294",75,"second_win","409",FALSE,"left",0.5,"2","first_time",0.8625,"cd2","General","Restaurant",34,"F",0,0.303030303030303,0,4,0,"Gain"
"295",76,"second_win","343",FALSE,"left",0.5,"2","first_time",0.875,"cd2","General","Restaurant",34,"F",0,0.303030303030303,0,4,0,"Gain"
"296",77,"second_win","419",FALSE,"left",0.5,"2","first_time",0.8875,"cd2","General","Restaurant",34,"F",0,0.303030303030303,0,4,0,"Gain"
"297",78,"second_win","499",FALSE,"left",0.5,"2","first_time",0.9,"cd2","General","Restaurant",34,"F",0,0.303030303030303,0,4,0,"Gain"
"298",79,"second_win","872",FALSE,"left",0.5,"2","first_time",0.9125,"cd2","General","Restaurant",34,"F",0,0.303030303030303,0,4,0,"Gain"
"299",80,"second_win","475",TRUE,"right",0,"4","first_time",0.9125,"cd2","General","Restaurant",34,"F",0,0.303030303030303,0,4,0,"Gain"
"300",81,"second_win","383",FALSE,"left",0.5,"2","first_time",0.925,"cd2","General","Restaurant",34,"F",0,0.303030303030303,0,5,0,"Gain"
"301",82,"second_win","339",TRUE,"right",1,"4","first_time",0.95,"cd2","General","Restaurant",34,"F",0,0.303030303030303,0,5,0,"Gain"
"302",83,"second_win","967",TRUE,"right",0,"4","first_time",0.95,"cd2","General","Restaurant",34,"F",0,0.303030303030303,0,5,1,"Gain"
"303",84,"second_win","420",FALSE,"left",0.5,"2","first_time",0.9625,"cd2","General","Restaurant",34,"F",0,0.303030303030303,0,5,0,"Gain"
"304",85,"second_win","513",FALSE,"left",0.5,"2","first_time",0.975,"cd2","General","Restaurant",34,"F",0,0.303030303030303,0,5,0,"Gain"
"305",86,"second_win","331",TRUE,"right",1,"4","first_time",1,"cd2","General","Restaurant",34,"F",0,0.303030303030303,0,5,0,"Gain"
"306",87,"second_win","508",FALSE,"left",0.5,"2","first_time",1.0125,"cd2","General","Restaurant",34,"F",0,0.303030303030303,0,5,1,"Gain"
"307",88,"second_win","440",FALSE,"left",0.5,"2","first_time",1.025,"cd2","General","Restaurant",34,"F",0,0.303030303030303,0,5,1,"Gain"
"308",89,"second_win","476",TRUE,"right",1,"4","first_time",1.05,"cd2","General","Restaurant",34,"F",0,0.303030303030303,0,5,1,"Gain"
"309",90,"second_win","316",FALSE,"left",0.5,"2","first_time",1.0625,"cd2","General","Restaurant",34,"F",0,0.303030303030303,0,5,1,"Gain"
"310",91,"second_win","319",FALSE,"left",0.5,"2","first_time",1.075,"cd2","General","Restaurant",34,"F",0,0.303030303030303,0,5,1,"Gain"
"311",92,"second_win","483",FALSE,"left",0.5,"2","first_time",1.0875,"cd2","General","Restaurant",34,"F",0,0.303030303030303,0,5,1,"Gain"
"312",93,"second_win","417",FALSE,"left",0.5,"2","first_time",1.1,"cd2","General","Restaurant",34,"F",0,0.303030303030303,0,5,1,"Gain"
"313",94,"second_win","331",TRUE,"right",0,"4","first_time",1.1,"cd2","General","Restaurant",34,"F",0,0.303030303030303,0,5,1,"Gain"
"314",95,"second_win","239",FALSE,"left",0.5,"2","first_time",1.1125,"cd2","General","Restaurant",34,"F",0,0.303030303030303,0,5,0,"Gain"
"315",96,"second_win","531",TRUE,"right",1,"4","first_time",1.1375,"cd2","General","Restaurant",34,"F",0,0.303030303030303,0,5,0,"Gain"
"316",97,"second_win","685",FALSE,"left",0.5,"2","first_time",1.15,"cd2","General","Restaurant",34,"F",0,0.303030303030303,0,5,1,"Gain"
"317",98,"second_win","656",FALSE,"left",0.5,"2","first_time",1.1625,"cd2","General","Restaurant",34,"F",0,0.303030303030303,0,5,1,"Gain"
"318",99,"second_win","341",FALSE,"left",0.5,"2","first_time",1.175,"cd2","General","Restaurant",34,"F",0,0.303030303030303,0,5,1,"Gain"
"319",100,"second_win","263",FALSE,"left",0.5,"2","first_time",1.1875,"cd2","General","Restaurant",34,"F",0,0.303030303030303,0,5,1,"Gain"
"439",1,"first_win","3406",TRUE,"right",1,"3","first_time",0.025,"cd3","Episodic","Hospital",21,"F",2.5,0.43,0,1,NA,"Gain"
"440",2,"first_win","1182",FALSE,"left",0.5,"1","first_time",0.0375,"cd3","Episodic","Hospital",21,"F",2.5,0.43,0,1,1,"Gain"
"441",3,"first_win","1338",FALSE,"left",0.5,"1","first_time",0.05,"cd3","Episodic","Hospital",21,"F",2.5,0.43,0,1,1,"Gain"
"442",4,"first_win","1282",TRUE,"right",0,"3","first_time",0.05,"cd3","Episodic","Hospital",21,"F",2.5,0.43,0,1,1,"Gain"
"443",5,"first_win","1351",TRUE,"right",1,"3","first_time",0.075,"cd3","Episodic","Hospital",21,"F",2.5,0.43,0,1,0,"Gain"
"444",6,"first_win","740",FALSE,"left",0.5,"1","first_time",0.0875,"cd3","Episodic","Hospital",21,"F",2.5,0.43,0,1,1,"Gain"
"445",7,"first_win","2724",FALSE,"left",0.5,"1","first_time",0.1,"cd3","Episodic","Hospital",21,"F",2.5,0.43,0,1,1,"Gain"
"446",8,"first_win","949",TRUE,"right",0,"3","first_time",0.1,"cd3","Episodic","Hospital",21,"F",2.5,0.43,0,1,1,"Gain"
"447",9,"first_win","1251",TRUE,"right",0,"3","first_time",0.1,"cd3","Episodic","Hospital",21,"F",2.5,0.43,0,1,0,"Gain"
"448",10,"first_win","872",TRUE,"right",0,"3","first_time",0.1,"cd3","Episodic","Hospital",21,"F",2.5,0.43,0,1,0,"Gain"
"449",11,"first_win","291",FALSE,"left",0.5,"1","first_time",0.1125,"cd3","Episodic","Hospital",21,"F",2.5,0.43,0,1,0,"Gain"
"450",12,"first_win","1385",FALSE,"left",0.5,"1","first_time",0.125,"cd3","Episodic","Hospital",21,"F",2.5,0.43,0,1,0,"Gain"
"451",13,"first_win","893",FALSE,"left",0.5,"1","first_time",0.1375,"cd3","Episodic","Hospital",21,"F",2.5,0.43,0,1,0,"Gain"
"452",14,"first_win","1011",FALSE,"left",0.5,"1","first_time",0.15,"cd3","Episodic","Hospital",21,"F",2.5,0.43,0,1,0,"Gain"
"453",15,"first_win","2120",FALSE,"left",0.5,"1","first_time",0.1625,"cd3","Episodic","Hospital",21,"F",2.5,0.43,0,1,0,"Gain"
"454",16,"first_win","1253",FALSE,"left",0.5,"1","first_time",0.175,"cd3","Episodic","Hospital",21,"F",2.5,0.43,0,1,0,"Gain"
"455",17,"first_win","787",FALSE,"left",0.5,"1","first_time",0.1875,"cd3","Episodic","Hospital",21,"F",2.5,0.43,0,1,0,"Gain"
"456",18,"first_win","585",FALSE,"left",0.5,"1","first_time",0.2,"cd3","Episodic","Hospital",21,"F",2.5,0.43,0,1,0,"Gain"
"457",19,"first_win","749",FALSE,"left",0.5,"1","first_time",0.2125,"cd3","Episodic","Hospital",21,"F",2.5,0.43,0,1,0,"Gain"
"458",20,"first_win","673",FALSE,"left",0.5,"1","first_time",0.225,"cd3","Episodic","Hospital",21,"F",2.5,0.43,0,1,0,"Gain"
"459",21,"first_win","1236",FALSE,"left",0.5,"1","first_time",0.2375,"cd3","Episodic","Hospital",21,"F",2.5,0.43,0,2,0,"Gain"
"460",22,"first_win","737",FALSE,"left",0.5,"1","first_time",0.25,"cd3","Episodic","Hospital",21,"F",2.5,0.43,0,2,0,"Gain"
"461",23,"first_win","533",FALSE,"left",0.5,"1","first_time",0.2625,"cd3","Episodic","Hospital",21,"F",2.5,0.43,0,2,0,"Gain"
"462",24,"first_win","506",FALSE,"left",0.5,"1","first_time",0.275,"cd3","Episodic","Hospital",21,"F",2.5,0.43,0,2,0,"Gain"
"463",25,"first_win","774",TRUE,"right",1,"3","first_time",0.3,"cd3","Episodic","Hospital",21,"F",2.5,0.43,0,2,0,"Gain"
"464",26,"first_win","578",TRUE,"right",1,"3","first_time",0.325,"cd3","Episodic","Hospital",21,"F",2.5,0.43,0,2,1,"Gain"
"465",27,"first_win","924",TRUE,"right",1,"3","first_time",0.35,"cd3","Episodic","Hospital",21,"F",2.5,0.43,0,2,1,"Gain"
"466",28,"first_win","958",TRUE,"right",1,"3","first_time",0.375,"cd3","Episodic","Hospital",21,"F",2.5,0.43,0,2,1,"Gain"
"467",29,"first_win","607",TRUE,"right",1,"3","first_time",0.4,"cd3","Episodic","Hospital",21,"F",2.5,0.43,0,2,1,"Gain"
"468",30,"first_win","528",TRUE,"right",1,"3","first_time",0.425,"cd3","Episodic","Hospital",21,"F",2.5,0.43,0,2,1,"Gain"
"469",31,"first_win","641",TRUE,"right",0,"3","first_time",0.425,"cd3","Episodic","Hospital",21,"F",2.5,0.43,0,2,1,"Gain"
"470",32,"first_win","1336",FALSE,"left",0.5,"1","first_time",0.4375,"cd3","Episodic","Hospital",21,"F",2.5,0.43,0,2,0,"Gain"
"471",33,"first_win","708",FALSE,"left",0.5,"1","first_time",0.45,"cd3","Episodic","Hospital",21,"F",2.5,0.43,0,2,0,"Gain"
"472",34,"first_win","855",FALSE,"left",0.5,"1","first_time",0.4625,"cd3","Episodic","Hospital",21,"F",2.5,0.43,0,2,0,"Gain"
"473",35,"first_win","435",TRUE,"right",1,"3","first_time",0.4875,"cd3","Episodic","Hospital",21,"F",2.5,0.43,0,2,0,"Gain"
"474",36,"first_win","446",TRUE,"right",1,"3","first_time",0.5125,"cd3","Episodic","Hospital",21,"F",2.5,0.43,0,2,1,"Gain"
"475",37,"first_win","426",TRUE,"right",0,"3","first_time",0.5125,"cd3","Episodic","Hospital",21,"F",2.5,0.43,0,2,1,"Gain"
"476",38,"first_win","444",FALSE,"left",0.5,"1","first_time",0.525,"cd3","Episodic","Hospital",21,"F",2.5,0.43,0,2,0,"Gain"
"477",39,"first_win","388",TRUE,"right",1,"3","first_time",0.55,"cd3","Episodic","Hospital",21,"F",2.5,0.43,0,2,0,"Gain"
"478",40,"first_win","520",TRUE,"right",0,"3","first_time",0.55,"cd3","Episodic","Hospital",21,"F",2.5,0.43,0,2,1,"Gain"
"479",41,"first_win","461",FALSE,"left",0.5,"1","first_time",0.5625,"cd3","Episodic","Hospital",21,"F",2.5,0.43,0,3,0,"Gain"
"480",42,"first_win","451",FALSE,"left",0.5,"1","first_time",0.575,"cd3","Episodic","Hospital",21,"F",2.5,0.43,0,3,0,"Gain"
"481",43,"first_win","428",TRUE,"right",0,"3","first_time",0.575,"cd3","Episodic","Hospital",21,"F",2.5,0.43,0,3,0,"Gain"
"482",44,"first_win","650",FALSE,"left",0.5,"1","first_time",0.5875,"cd3","Episodic","Hospital",21,"F",2.5,0.43,0,3,0,"Gain"
"483",45,"first_win","646",FALSE,"left",0.5,"1","first_time",0.6,"cd3","Episodic","Hospital",21,"F",2.5,0.43,0,3,0,"Gain"
"484",46,"first_win","491",TRUE,"right",0,"3","first_time",0.6,"cd3","Episodic","Hospital",21,"F",2.5,0.43,0,3,0,"Gain"
"485",47,"first_win","408",FALSE,"left",0.5,"1","first_time",0.6125,"cd3","Episodic","Hospital",21,"F",2.5,0.43,0,3,0,"Gain"
"486",48,"first_win","1080",FALSE,"left",0.5,"1","first_time",0.625,"cd3","Episodic","Hospital",21,"F",2.5,0.43,0,3,0,"Gain"
"487",49,"first_win","367",TRUE,"right",1,"3","first_time",0.65,"cd3","Episodic","Hospital",21,"F",2.5,0.43,0,3,0,"Gain"
"488",50,"first_win","528",TRUE,"right",1,"3","first_time",0.675,"cd3","Episodic","Hospital",21,"F",2.5,0.43,0,3,1,"Gain"
"489",51,"first_win","585",TRUE,"right",0,"3","first_time",0.675,"cd3","Episodic","Hospital",21,"F",2.5,0.43,0,3,1,"Gain"
"490",52,"first_win","437",TRUE,"right",1,"3","first_time",0.7,"cd3","Episodic","Hospital",21,"F",2.5,0.43,0,3,0,"Gain"
"491",53,"first_win","353",TRUE,"right",0,"3","first_time",0.7,"cd3","Episodic","Hospital",21,"F",2.5,0.43,0,3,1,"Gain"
"492",54,"first_win","381",FALSE,"left",0.5,"1","first_time",0.7125,"cd3","Episodic","Hospital",21,"F",2.5,0.43,0,3,0,"Gain"
"493",55,"first_win","458",FALSE,"left",0.5,"1","first_time",0.725,"cd3","Episodic","Hospital",21,"F",2.5,0.43,0,3,0,"Gain"
"494",56,"first_win","264",TRUE,"right",0,"3","first_time",0.725,"cd3","Episodic","Hospital",21,"F",2.5,0.43,0,3,0,"Gain"
"495",57,"first_win","372",FALSE,"left",0.5,"1","first_time",0.7375,"cd3","Episodic","Hospital",21,"F",2.5,0.43,0,3,0,"Gain"
"496",58,"first_win","480",TRUE,"right",1,"3","first_time",0.7625,"cd3","Episodic","Hospital",21,"F",2.5,0.43,0,3,0,"Gain"
"497",59,"first_win","428",TRUE,"right",0,"3","first_time",0.7625,"cd3","Episodic","Hospital",21,"F",2.5,0.43,0,3,1,"Gain"
"498",60,"first_win","855",TRUE,"right",0,"3","first_time",0.7625,"cd3","Episodic","Hospital",21,"F",2.5,0.43,0,3,0,"Gain"
"499",61,"first_win","239",FALSE,"left",0.5,"1","first_time",0.775,"cd3","Episodic","Hospital",21,"F",2.5,0.43,0,4,0,"Gain"
"500",62,"first_win","740",FALSE,"left",0.5,"1","first_time",0.7875,"cd3","Episodic","Hospital",21,"F",2.5,0.43,0,4,0,"Gain"
"501",63,"first_win","489",FALSE,"left",0.5,"1","first_time",0.8,"cd3","Episodic","Hospital",21,"F",2.5,0.43,0,4,0,"Gain"
"502",64,"first_win","511",FALSE,"left",0.5,"1","first_time",0.8125,"cd3","Episodic","Hospital",21,"F",2.5,0.43,0,4,0,"Gain"
"503",65,"first_win","492",TRUE,"right",1,"3","first_time",0.8375,"cd3","Episodic","Hospital",21,"F",2.5,0.43,0,4,0,"Gain"
"504",66,"first_win","458",FALSE,"left",0.5,"1","first_time",0.85,"cd3","Episodic","Hospital",21,"F",2.5,0.43,0,4,1,"Gain"
"505",67,"first_win","390",TRUE,"right",1,"3","first_time",0.875,"cd3","Episodic","Hospital",21,"F",2.5,0.43,0,4,1,"Gain"
"506",68,"first_win","331",FALSE,"left",0.5,"1","first_time",0.8875,"cd3","Episodic","Hospital",21,"F",2.5,0.43,0,4,1,"Gain"
"507",69,"first_win","373",TRUE,"right",0,"3","first_time",0.8875,"cd3","Episodic","Hospital",21,"F",2.5,0.43,0,4,1,"Gain"
"508",70,"first_win","656",FALSE,"left",0.5,"1","first_time",0.9,"cd3","Episodic","Hospital",21,"F",2.5,0.43,0,4,0,"Gain"
"509",71,"first_win","585",FALSE,"left",0.5,"1","first_time",0.9125,"cd3","Episodic","Hospital",21,"F",2.5,0.43,0,4,0,"Gain"
"510",72,"first_win","1503",FALSE,"left",0.5,"1","first_time",0.925,"cd3","Episodic","Hospital",21,"F",2.5,0.43,0,4,0,"Gain"
"511",73,"first_win","230",TRUE,"right",1,"3","first_time",0.95,"cd3","Episodic","Hospital",21,"F",2.5,0.43,0,4,0,"Gain"
"512",74,"first_win","706",FALSE,"left",0.5,"1","first_time",0.9625,"cd3","Episodic","Hospital",21,"F",2.5,0.43,0,4,1,"Gain"
"513",75,"first_win","1453",FALSE,"left",0.5,"1","first_time",0.975,"cd3","Episodic","Hospital",21,"F",2.5,0.43,0,4,1,"Gain"
"514",76,"first_win","371",FALSE,"left",0.5,"1","first_time",0.9875,"cd3","Episodic","Hospital",21,"F",2.5,0.43,0,4,1,"Gain"
"515",77,"first_win","295",TRUE,"right",1,"3","first_time",1.0125,"cd3","Episodic","Hospital",21,"F",2.5,0.43,0,4,1,"Gain"
"516",78,"first_win","682",TRUE,"right",1,"3","first_time",1.0375,"cd3","Episodic","Hospital",21,"F",2.5,0.43,0,4,1,"Gain"
"517",79,"first_win","928",TRUE,"right",0,"3","first_time",1.0375,"cd3","Episodic","Hospital",21,"F",2.5,0.43,0,4,1,"Gain"
"518",80,"first_win","1037",TRUE,"right",1,"3","first_time",1.0625,"cd3","Episodic","Hospital",21,"F",2.5,0.43,0,4,0,"Gain"
"519",81,"first_win","346",FALSE,"left",0.5,"1","first_time",1.075,"cd3","Episodic","Hospital",21,"F",2.5,0.43,0,5,1,"Gain"
"520",82,"first_win","583",TRUE,"right",0,"3","first_time",1.075,"cd3","Episodic","Hospital",21,"F",2.5,0.43,0,5,1,"Gain"
"521",83,"first_win","484",FALSE,"left",0.5,"1","first_time",1.0875,"cd3","Episodic","Hospital",21,"F",2.5,0.43,0,5,0,"Gain"
"522",84,"first_win","361",FALSE,"left",0.5,"1","first_time",1.1,"cd3","Episodic","Hospital",21,"F",2.5,0.43,0,5,0,"Gain"
"523",85,"first_win","389",TRUE,"right",0,"3","first_time",1.1,"cd3","Episodic","Hospital",21,"F",2.5,0.43,0,5,0,"Gain"
"524",86,"first_win","497",TRUE,"right",0,"3","first_time",1.1,"cd3","Episodic","Hospital",21,"F",2.5,0.43,0,5,0,"Gain"
"525",87,"first_win","454",FALSE,"left",0.5,"1","first_time",1.1125,"cd3","Episodic","Hospital",21,"F",2.5,0.43,0,5,0,"Gain"
"526",88,"first_win","402",FALSE,"left",0.5,"1","first_time",1.125,"cd3","Episodic","Hospital",21,"F",2.5,0.43,0,5,0,"Gain"
"527",89,"first_win","546",FALSE,"left",0.5,"1","first_time",1.1375,"cd3","Episodic","Hospital",21,"F",2.5,0.43,0,5,0,"Gain"
"528",90,"first_win","881",FALSE,"left",0.5,"1","first_time",1.15,"cd3","Episodic","Hospital",21,"F",2.5,0.43,0,5,0,"Gain"
"529",91,"first_win","474",FALSE,"left",0.5,"1","first_time",1.1625,"cd3","Episodic","Hospital",21,"F",2.5,0.43,0,5,0,"Gain"
"530",92,"first_win","627",FALSE,"left",0.5,"1","first_time",1.175,"cd3","Episodic","Hospital",21,"F",2.5,0.43,0,5,0,"Gain"
"531",93,"first_win","496",FALSE,"left",0.5,"1","first_time",1.1875,"cd3","Episodic","Hospital",21,"F",2.5,0.43,0,5,0,"Gain"
"532",94,"first_win","307",TRUE,"right",0,"3","first_time",1.1875,"cd3","Episodic","Hospital",21,"F",2.5,0.43,0,5,0,"Gain"
"533",95,"first_win","319",FALSE,"left",0.5,"1","first_time",1.2,"cd3","Episodic","Hospital",21,"F",2.5,0.43,0,5,0,"Gain"
"534",96,"first_win","539",FALSE,"left",0.5,"1","first_time",1.2125,"cd3","Episodic","Hospital",21,"F",2.5,0.43,0,5,0,"Gain"
"535",97,"first_win","465",FALSE,"left",0.5,"1","first_time",1.225,"cd3","Episodic","Hospital",21,"F",2.5,0.43,0,5,0,"Gain"
"536",98,"first_win","459",FALSE,"left",0.5,"1","first_time",1.2375,"cd3","Episodic","Hospital",21,"F",2.5,0.43,0,5,0,"Gain"
"537",99,"first_win","188",TRUE,"right",1,"3","first_time",1.2625,"cd3","Episodic","Hospital",21,"F",2.5,0.43,0,5,0,"Gain"
"538",100,"first_win","384",TRUE,"right",0,"3","first_time",1.2625,"cd3","Episodic","Hospital",21,"F",2.5,0.43,0,5,1,"Gain"
"658",1,"first_win","2397",TRUE,"right",1,"4","first_time",0.025,"cd4","Episodic","Restaurant",22,"F",2.5,0.614583333333333,0,1,NA,"Gain"
"659",2,"first_win","2018",FALSE,"left",0.5,"2","first_time",0.0375,"cd4","Episodic","Restaurant",22,"F",2.5,0.614583333333333,0,1,1,"Gain"
"660",3,"first_win","2050",FALSE,"left",0.5,"2","first_time",0.05,"cd4","Episodic","Restaurant",22,"F",2.5,0.614583333333333,0,1,1,"Gain"
"661",4,"first_win","742",FALSE,"left",0.5,"2","first_time",0.0625,"cd4","Episodic","Restaurant",22,"F",2.5,0.614583333333333,0,1,1,"Gain"
"662",5,"first_win","1113",TRUE,"right",0,"4","first_time",0.0625,"cd4","Episodic","Restaurant",22,"F",2.5,0.614583333333333,0,1,1,"Gain"
"663",6,"first_win","2253",TRUE,"right",1,"4","first_time",0.0875,"cd4","Episodic","Restaurant",22,"F",2.5,0.614583333333333,0,1,0,"Gain"
"664",7,"first_win","2344",TRUE,"right",0,"4","first_time",0.0875,"cd4","Episodic","Restaurant",22,"F",2.5,0.614583333333333,0,1,1,"Gain"
"665",8,"first_win","755",TRUE,"right",1,"4","first_time",0.1125,"cd4","Episodic","Restaurant",22,"F",2.5,0.614583333333333,0,1,0,"Gain"
"666",9,"first_win","623",FALSE,"left",0.5,"2","first_time",0.125,"cd4","Episodic","Restaurant",22,"F",2.5,0.614583333333333,0,1,1,"Gain"
"667",10,"first_win","524",FALSE,"left",0.5,"2","first_time",0.1375,"cd4","Episodic","Restaurant",22,"F",2.5,0.614583333333333,0,1,1,"Gain"
"668",11,"first_win","334",TRUE,"right",0,"4","first_time",0.1375,"cd4","Episodic","Restaurant",22,"F",2.5,0.614583333333333,0,1,1,"Gain"
"669",12,"first_win","1201",TRUE,"right",0,"4","first_time",0.1375,"cd4","Episodic","Restaurant",22,"F",2.5,0.614583333333333,0,1,0,"Gain"
"670",13,"first_win","-1",NA,NA,-1,NA,"first_time",0.1375,"cd4","Episodic","Restaurant",22,"F",2.5,0.614583333333333,0,1,0,"Gain"
"671",14,"first_win","464",TRUE,"right",0,"4","first_time",0.1375,"cd4","Episodic","Restaurant",22,"F",2.5,0.614583333333333,0,1,0,"Gain"
"672",15,"first_win","771",TRUE,"right",0,"4","first_time",0.1375,"cd4","Episodic","Restaurant",22,"F",2.5,0.614583333333333,0,1,0,"Gain"
"673",16,"first_win","2261",TRUE,"right",1,"4","first_time",0.1625,"cd4","Episodic","Restaurant",22,"F",2.5,0.614583333333333,0,1,0,"Gain"
"674",17,"first_win","1792",FALSE,"left",0.5,"2","first_time",0.175,"cd4","Episodic","Restaurant",22,"F",2.5,0.614583333333333,0,1,1,"Gain"
"675",18,"first_win","629",TRUE,"right",0,"4","first_time",0.175,"cd4","Episodic","Restaurant",22,"F",2.5,0.614583333333333,0,1,1,"Gain"
"676",19,"first_win","1505",TRUE,"right",0,"4","first_time",0.175,"cd4","Episodic","Restaurant",22,"F",2.5,0.614583333333333,0,1,0,"Gain"
"677",20,"first_win","645",TRUE,"right",1,"4","first_time",0.2,"cd4","Episodic","Restaurant",22,"F",2.5,0.614583333333333,0,1,0,"Gain"
"678",21,"first_win","753",FALSE,"left",0.5,"2","first_time",0.2125,"cd4","Episodic","Restaurant",22,"F",2.5,0.614583333333333,0,2,1,"Gain"
"679",22,"first_win","603",FALSE,"left",0.5,"2","first_time",0.225,"cd4","Episodic","Restaurant",22,"F",2.5,0.614583333333333,0,2,1,"Gain"
"680",23,"first_win","525",TRUE,"right",1,"4","first_time",0.25,"cd4","Episodic","Restaurant",22,"F",2.5,0.614583333333333,0,2,1,"Gain"
"681",24,"first_win","1392",TRUE,"right",1,"4","first_time",0.275,"cd4","Episodic","Restaurant",22,"F",2.5,0.614583333333333,0,2,1,"Gain"
"682",25,"first_win","1747",TRUE,"right",1,"4","first_time",0.3,"cd4","Episodic","Restaurant",22,"F",2.5,0.614583333333333,0,2,1,"Gain"
"683",26,"first_win","654",TRUE,"right",1,"4","first_time",0.325,"cd4","Episodic","Restaurant",22,"F",2.5,0.614583333333333,0,2,1,"Gain"
"684",27,"first_win","592",TRUE,"right",0,"4","first_time",0.325,"cd4","Episodic","Restaurant",22,"F",2.5,0.614583333333333,0,2,1,"Gain"
"685",28,"first_win","567",TRUE,"right",1,"4","first_time",0.35,"cd4","Episodic","Restaurant",22,"F",2.5,0.614583333333333,0,2,0,"Gain"
"686",29,"first_win","700",TRUE,"right",1,"4","first_time",0.375,"cd4","Episodic","Restaurant",22,"F",2.5,0.614583333333333,0,2,1,"Gain"
"687",30,"first_win","379",TRUE,"right",0,"4","first_time",0.375,"cd4","Episodic","Restaurant",22,"F",2.5,0.614583333333333,0,2,1,"Gain"
"688",31,"first_win","303",TRUE,"right",0,"4","first_time",0.375,"cd4","Episodic","Restaurant",22,"F",2.5,0.614583333333333,0,2,0,"Gain"
"689",32,"first_win","279",FALSE,"left",0.5,"2","first_time",0.3875,"cd4","Episodic","Restaurant",22,"F",2.5,0.614583333333333,0,2,0,"Gain"
"690",33,"first_win","524",FALSE,"left",0.5,"2","first_time",0.4,"cd4","Episodic","Restaurant",22,"F",2.5,0.614583333333333,0,2,0,"Gain"
"691",34,"first_win","432",TRUE,"right",0,"4","first_time",0.4,"cd4","Episodic","Restaurant",22,"F",2.5,0.614583333333333,0,2,0,"Gain"
"692",35,"first_win","292",FALSE,"left",0.5,"2","first_time",0.4125,"cd4","Episodic","Restaurant",22,"F",2.5,0.614583333333333,0,2,0,"Gain"
"693",36,"first_win","0",TRUE,"right",1,"4","first_time",0.4375,"cd4","Episodic","Restaurant",22,"F",2.5,0.614583333333333,0,2,0,"Gain"
"694",37,"first_win","482",TRUE,"right",1,"4","first_time",0.4625,"cd4","Episodic","Restaurant",22,"F",2.5,0.614583333333333,0,2,1,"Gain"
"695",38,"first_win","493",TRUE,"right",0,"4","first_time",0.4625,"cd4","Episodic","Restaurant",22,"F",2.5,0.614583333333333,0,2,1,"Gain"
"696",39,"first_win","358",FALSE,"left",0.5,"2","first_time",0.475,"cd4","Episodic","Restaurant",22,"F",2.5,0.614583333333333,0,2,0,"Gain"
"697",40,"first_win","292",FALSE,"left",0.5,"2","first_time",0.4875,"cd4","Episodic","Restaurant",22,"F",2.5,0.614583333333333,0,2,0,"Gain"
"698",41,"first_win","1",TRUE,"right",1,"4","first_time",0.5125,"cd4","Episodic","Restaurant",22,"F",2.5,0.614583333333333,0,3,0,"Gain"
"699",42,"first_win","557",TRUE,"right",0,"4","first_time",0.5125,"cd4","Episodic","Restaurant",22,"F",2.5,0.614583333333333,0,3,1,"Gain"
"700",43,"first_win","296",FALSE,"left",0.5,"2","first_time",0.525,"cd4","Episodic","Restaurant",22,"F",2.5,0.614583333333333,0,3,0,"Gain"
"701",44,"first_win","389",FALSE,"left",0.5,"2","first_time",0.5375,"cd4","Episodic","Restaurant",22,"F",2.5,0.614583333333333,0,3,0,"Gain"
"702",45,"first_win","368",FALSE,"left",0.5,"2","first_time",0.55,"cd4","Episodic","Restaurant",22,"F",2.5,0.614583333333333,0,3,0,"Gain"
"703",46,"first_win","100",TRUE,"right",1,"4","first_time",0.575,"cd4","Episodic","Restaurant",22,"F",2.5,0.614583333333333,0,3,0,"Gain"
"704",47,"first_win","744",TRUE,"right",1,"4","first_time",0.6,"cd4","Episodic","Restaurant",22,"F",2.5,0.614583333333333,0,3,1,"Gain"
"705",48,"first_win","764",TRUE,"right",1,"4","first_time",0.625,"cd4","Episodic","Restaurant",22,"F",2.5,0.614583333333333,0,3,1,"Gain"
"706",49,"first_win","1231",FALSE,"left",0.5,"2","first_time",0.6375,"cd4","Episodic","Restaurant",22,"F",2.5,0.614583333333333,0,3,1,"Gain"
"707",50,"first_win","299",TRUE,"right",0,"4","first_time",0.6375,"cd4","Episodic","Restaurant",22,"F",2.5,0.614583333333333,0,3,1,"Gain"
"708",51,"first_win","319",TRUE,"right",1,"4","first_time",0.6625,"cd4","Episodic","Restaurant",22,"F",2.5,0.614583333333333,0,3,0,"Gain"
"709",52,"first_win","433",TRUE,"right",1,"4","first_time",0.6875,"cd4","Episodic","Restaurant",22,"F",2.5,0.614583333333333,0,3,1,"Gain"
"710",53,"first_win","594",TRUE,"right",1,"4","first_time",0.7125,"cd4","Episodic","Restaurant",22,"F",2.5,0.614583333333333,0,3,1,"Gain"
"711",54,"first_win","561",TRUE,"right",0,"4","first_time",0.7125,"cd4","Episodic","Restaurant",22,"F",2.5,0.614583333333333,0,3,1,"Gain"
"712",55,"first_win","404",TRUE,"right",0,"4","first_time",0.7125,"cd4","Episodic","Restaurant",22,"F",2.5,0.614583333333333,0,3,0,"Gain"
"713",56,"first_win","237",FALSE,"left",0.5,"2","first_time",0.725,"cd4","Episodic","Restaurant",22,"F",2.5,0.614583333333333,0,3,0,"Gain"
"714",57,"first_win","318",FALSE,"left",0.5,"2","first_time",0.7375,"cd4","Episodic","Restaurant",22,"F",2.5,0.614583333333333,0,3,0,"Gain"
"715",58,"first_win","317",FALSE,"left",0.5,"2","first_time",0.75,"cd4","Episodic","Restaurant",22,"F",2.5,0.614583333333333,0,3,0,"Gain"
"716",59,"first_win","696",FALSE,"left",0.5,"2","first_time",0.7625,"cd4","Episodic","Restaurant",22,"F",2.5,0.614583333333333,0,3,0,"Gain"
"717",60,"first_win","315",TRUE,"right",1,"4","first_time",0.7875,"cd4","Episodic","Restaurant",22,"F",2.5,0.614583333333333,0,3,0,"Gain"
"718",61,"first_win","559",TRUE,"right",1,"4","first_time",0.8125,"cd4","Episodic","Restaurant",22,"F",2.5,0.614583333333333,0,4,1,"Gain"
"719",62,"first_win","523",TRUE,"right",1,"4","first_time",0.8375,"cd4","Episodic","Restaurant",22,"F",2.5,0.614583333333333,0,4,1,"Gain"
"720",63,"first_win","613",TRUE,"right",0,"4","first_time",0.8375,"cd4","Episodic","Restaurant",22,"F",2.5,0.614583333333333,0,4,1,"Gain"
"721",64,"first_win","273",FALSE,"left",0.5,"2","first_time",0.85,"cd4","Episodic","Restaurant",22,"F",2.5,0.614583333333333,0,4,0,"Gain"
"722",65,"first_win","412",FALSE,"left",0.5,"2","first_time",0.8625,"cd4","Episodic","Restaurant",22,"F",2.5,0.614583333333333,0,4,0,"Gain"
"723",66,"first_win","496",FALSE,"left",0.5,"2","first_time",0.875,"cd4","Episodic","Restaurant",22,"F",2.5,0.614583333333333,0,4,0,"Gain"
"724",67,"first_win","19",FALSE,"left",0.5,"2","first_time",0.8875,"cd4","Episodic","Restaurant",22,"F",2.5,0.614583333333333,0,4,0,"Gain"
"725",68,"first_win","0",TRUE,"right",0,"4","first_time",0.8875,"cd4","Episodic","Restaurant",22,"F",2.5,0.614583333333333,0,4,0,"Gain"
"726",69,"first_win","188",TRUE,"right",0,"4","first_time",0.8875,"cd4","Episodic","Restaurant",22,"F",2.5,0.614583333333333,0,4,0,"Gain"
"727",70,"first_win","222",TRUE,"right",0,"4","first_time",0.8875,"cd4","Episodic","Restaurant",22,"F",2.5,0.614583333333333,0,4,0,"Gain"
"728",71,"first_win","-1",NA,NA,-1,NA,"first_time",0.8875,"cd4","Episodic","Restaurant",22,"F",2.5,0.614583333333333,0,4,0,"Gain"
"729",72,"first_win","863",TRUE,"right",0,"4","first_time",0.8875,"cd4","Episodic","Restaurant",22,"F",2.5,0.614583333333333,0,4,0,"Gain"
"730",73,"first_win","0",FALSE,"left",0.5,"2","first_time",0.9,"cd4","Episodic","Restaurant",22,"F",2.5,0.614583333333333,0,4,0,"Gain"
"731",74,"first_win","326",FALSE,"left",0.5,"2","first_time",0.9125,"cd4","Episodic","Restaurant",22,"F",2.5,0.614583333333333,0,4,0,"Gain"
"732",75,"first_win","-1",NA,NA,-1,NA,"first_time",0.9125,"cd4","Episodic","Restaurant",22,"F",2.5,0.614583333333333,0,4,0,"Gain"
"733",76,"first_win","404",TRUE,"right",0,"4","first_time",0.9125,"cd4","Episodic","Restaurant",22,"F",2.5,0.614583333333333,0,4,0,"Gain"
"734",77,"first_win","72",FALSE,"left",0.5,"2","first_time",0.925,"cd4","Episodic","Restaurant",22,"F",2.5,0.614583333333333,0,4,0,"Gain"
"735",78,"first_win","404",FALSE,"left",0.5,"2","first_time",0.9375,"cd4","Episodic","Restaurant",22,"F",2.5,0.614583333333333,0,4,0,"Gain"
"736",79,"first_win","15",FALSE,"left",0.5,"2","first_time",0.95,"cd4","Episodic","Restaurant",22,"F",2.5,0.614583333333333,0,4,0,"Gain"
"737",80,"first_win","-1",NA,NA,-1,NA,"first_time",0.95,"cd4","Episodic","Restaurant",22,"F",2.5,0.614583333333333,0,4,0,"Gain"
"738",81,"first_win","571",TRUE,"right",0,"4","first_time",0.95,"cd4","Episodic","Restaurant",22,"F",2.5,0.614583333333333,0,5,0,"Gain"
"739",82,"first_win","440",TRUE,"right",1,"4","first_time",0.975,"cd4","Episodic","Restaurant",22,"F",2.5,0.614583333333333,0,5,0,"Gain"
"740",83,"first_win","451",TRUE,"right",1,"4","first_time",1,"cd4","Episodic","Restaurant",22,"F",2.5,0.614583333333333,0,5,1,"Gain"
"741",84,"first_win","318",TRUE,"right",1,"4","first_time",1.025,"cd4","Episodic","Restaurant",22,"F",2.5,0.614583333333333,0,5,1,"Gain"
"742",85,"first_win","235",TRUE,"right",0,"4","first_time",1.025,"cd4","Episodic","Restaurant",22,"F",2.5,0.614583333333333,0,5,1,"Gain"
"743",86,"first_win","398",FALSE,"left",0.5,"2","first_time",1.0375,"cd4","Episodic","Restaurant",22,"F",2.5,0.614583333333333,0,5,0,"Gain"
"744",87,"first_win","369",FALSE,"left",0.5,"2","first_time",1.05,"cd4","Episodic","Restaurant",22,"F",2.5,0.614583333333333,0,5,0,"Gain"
"745",88,"first_win","338",FALSE,"left",0.5,"2","first_time",1.0625,"cd4","Episodic","Restaurant",22,"F",2.5,0.614583333333333,0,5,0,"Gain"
"746",89,"first_win","262",FALSE,"left",0.5,"2","first_time",1.075,"cd4","Episodic","Restaurant",22,"F",2.5,0.614583333333333,0,5,0,"Gain"
"747",90,"first_win","247",FALSE,"left",0.5,"2","first_time",1.0875,"cd4","Episodic","Restaurant",22,"F",2.5,0.614583333333333,0,5,0,"Gain"
"748",91,"first_win","291",TRUE,"right",0,"4","first_time",1.0875,"cd4","Episodic","Restaurant",22,"F",2.5,0.614583333333333,0,5,0,"Gain"
"749",92,"first_win","313",TRUE,"right",1,"4","first_time",1.1125,"cd4","Episodic","Restaurant",22,"F",2.5,0.614583333333333,0,5,0,"Gain"
"750",93,"first_win","565",TRUE,"right",1,"4","first_time",1.1375,"cd4","Episodic","Restaurant",22,"F",2.5,0.614583333333333,0,5,1,"Gain"
"751",94,"first_win","312",TRUE,"right",1,"4","first_time",1.1625,"cd4","Episodic","Restaurant",22,"F",2.5,0.614583333333333,0,5,1,"Gain"
"752",95,"first_win","301",TRUE,"right",0,"4","first_time",1.1625,"cd4","Episodic","Restaurant",22,"F",2.5,0.614583333333333,0,5,1,"Gain"
"753",96,"first_win","593",FALSE,"left",0.5,"2","first_time",1.175,"cd4","Episodic","Restaurant",22,"F",2.5,0.614583333333333,0,5,0,"Gain"
"754",97,"first_win","543",FALSE,"left",0.5,"2","first_time",1.1875,"cd4","Episodic","Restaurant",22,"F",2.5,0.614583333333333,0,5,0,"Gain"
"755",98,"first_win","335",TRUE,"right",0,"4","first_time",1.1875,"cd4","Episodic","Restaurant",22,"F",2.5,0.614583333333333,0,5,0,"Gain"
"756",99,"first_win","330",TRUE,"right",0,"4","first_time",1.1875,"cd4","Episodic","Restaurant",22,"F",2.5,0.614583333333333,0,5,0,"Gain"
"757",100,"first_win","325",TRUE,"right",1,"4","first_time",1.2125,"cd4","Episodic","Restaurant",22,"F",2.5,0.614583333333333,0,5,0,"Gain"
"877",1,"first_win","2780",FALSE,"left",0.5,"4","first_time",0.0125,"cd5","General","Restaurant",24,"M",2.5,0.81,60,1,NA,"Gain"
"878",2,"first_win","1668",FALSE,"left",0.5,"4","first_time",0.025,"cd5","General","Restaurant",24,"M",2.5,0.81,60,1,NA,"Gain"
"879",3,"first_win","2389",TRUE,"right",1,"1","first_time",0.05,"cd5","General","Restaurant",24,"M",2.5,0.81,60,1,NA,"Gain"
"880",4,"first_win","465",TRUE,"right",0,"1","first_time",0.05,"cd5","General","Restaurant",24,"M",2.5,0.81,60,1,1,"Gain"
"881",5,"first_win","1445",FALSE,"left",0.5,"4","first_time",0.0625,"cd5","General","Restaurant",24,"M",2.5,0.81,60,1,0,"Gain"
"882",6,"first_win","761",TRUE,"right",1,"1","first_time",0.0875,"cd5","General","Restaurant",24,"M",2.5,0.81,60,1,0,"Gain"
"883",7,"first_win","842",TRUE,"right",0,"1","first_time",0.0875,"cd5","General","Restaurant",24,"M",2.5,0.81,60,1,1,"Gain"
"884",8,"first_win","630",TRUE,"right",1,"1","first_time",0.1125,"cd5","General","Restaurant",24,"M",2.5,0.81,60,1,0,"Gain"
"885",9,"first_win","1319",FALSE,"left",0.5,"4","first_time",0.125,"cd5","General","Restaurant",24,"M",2.5,0.81,60,1,1,"Gain"
"886",10,"first_win","202",FALSE,"left",0.5,"4","first_time",0.1375,"cd5","General","Restaurant",24,"M",2.5,0.81,60,1,1,"Gain"
"887",11,"first_win","633",TRUE,"right",0,"1","first_time",0.1375,"cd5","General","Restaurant",24,"M",2.5,0.81,60,1,1,"Gain"
"888",12,"first_win","461",TRUE,"right",0,"1","first_time",0.1375,"cd5","General","Restaurant",24,"M",2.5,0.81,60,1,0,"Gain"
"889",13,"first_win","154",FALSE,"left",0.5,"4","first_time",0.15,"cd5","General","Restaurant",24,"M",2.5,0.81,60,1,0,"Gain"
"890",14,"first_win","188",FALSE,"left",0.5,"4","first_time",0.1625,"cd5","General","Restaurant",24,"M",2.5,0.81,60,1,0,"Gain"
"891",15,"first_win","0",FALSE,"left",0.5,"4","first_time",0.175,"cd5","General","Restaurant",24,"M",2.5,0.81,60,1,0,"Gain"
"892",16,"first_win","275",FALSE,"left",0.5,"4","first_time",0.1875,"cd5","General","Restaurant",24,"M",2.5,0.81,60,1,0,"Gain"
"893",17,"first_win","172",FALSE,"left",0.5,"4","first_time",0.2,"cd5","General","Restaurant",24,"M",2.5,0.81,60,1,0,"Gain"
"894",18,"first_win","290",TRUE,"right",1,"1","first_time",0.225,"cd5","General","Restaurant",24,"M",2.5,0.81,60,1,0,"Gain"
"895",19,"first_win","255",FALSE,"left",0.5,"4","first_time",0.2375,"cd5","General","Restaurant",24,"M",2.5,0.81,60,1,1,"Gain"
"896",20,"first_win","52",FALSE,"left",0.5,"4","first_time",0.25,"cd5","General","Restaurant",24,"M",2.5,0.81,60,1,1,"Gain"
"897",21,"first_win","208",FALSE,"left",0.5,"4","first_time",0.2625,"cd5","General","Restaurant",24,"M",2.5,0.81,60,2,1,"Gain"
"898",22,"first_win","0",FALSE,"left",0.5,"4","first_time",0.275,"cd5","General","Restaurant",24,"M",2.5,0.81,60,2,1,"Gain"
"899",23,"first_win","401",TRUE,"right",0,"1","first_time",0.275,"cd5","General","Restaurant",24,"M",2.5,0.81,60,2,1,"Gain"
"900",24,"first_win","78",FALSE,"left",0.5,"4","first_time",0.2875,"cd5","General","Restaurant",24,"M",2.5,0.81,60,2,0,"Gain"
"901",25,"first_win","193",FALSE,"left",0.5,"4","first_time",0.3,"cd5","General","Restaurant",24,"M",2.5,0.81,60,2,0,"Gain"
"902",26,"first_win","0",FALSE,"left",0.5,"4","first_time",0.3125,"cd5","General","Restaurant",24,"M",2.5,0.81,60,2,0,"Gain"
"903",27,"first_win","304",TRUE,"right",0,"1","first_time",0.3125,"cd5","General","Restaurant",24,"M",2.5,0.81,60,2,0,"Gain"
"904",28,"first_win","219",TRUE,"right",1,"1","first_time",0.3375,"cd5","General","Restaurant",24,"M",2.5,0.81,60,2,0,"Gain"
"905",29,"first_win","303",TRUE,"right",1,"1","first_time",0.3625,"cd5","General","Restaurant",24,"M",2.5,0.81,60,2,1,"Gain"
"906",30,"first_win","346",TRUE,"right",1,"1","first_time",0.3875,"cd5","General","Restaurant",24,"M",2.5,0.81,60,2,1,"Gain"
"907",31,"first_win","231",TRUE,"right",1,"1","first_time",0.4125,"cd5","General","Restaurant",24,"M",2.5,0.81,60,2,1,"Gain"
"908",32,"first_win","146",TRUE,"right",0,"1","first_time",0.4125,"cd5","General","Restaurant",24,"M",2.5,0.81,60,2,1,"Gain"
"909",33,"first_win","175",TRUE,"right",0,"1","first_time",0.4125,"cd5","General","Restaurant",24,"M",2.5,0.81,60,2,0,"Gain"
"910",34,"first_win","146",TRUE,"right",0,"1","first_time",0.4125,"cd5","General","Restaurant",24,"M",2.5,0.81,60,2,0,"Gain"
"911",35,"first_win","152",TRUE,"right",0,"1","first_time",0.4125,"cd5","General","Restaurant",24,"M",2.5,0.81,60,2,0,"Gain"
"912",36,"first_win","360",TRUE,"right",1,"1","first_time",0.4375,"cd5","General","Restaurant",24,"M",2.5,0.81,60,2,0,"Gain"
"913",37,"first_win","286",TRUE,"right",0,"1","first_time",0.4375,"cd5","General","Restaurant",24,"M",2.5,0.81,60,2,1,"Gain"
"914",38,"first_win","434",TRUE,"right",0,"1","first_time",0.4375,"cd5","General","Restaurant",24,"M",2.5,0.81,60,2,0,"Gain"
"915",39,"first_win","165",TRUE,"right",1,"1","first_time",0.4625,"cd5","General","Restaurant",24,"M",2.5,0.81,60,2,0,"Gain"
"916",40,"first_win","255",TRUE,"right",0,"1","first_time",0.4625,"cd5","General","Restaurant",24,"M",2.5,0.81,60,2,1,"Gain"
"917",41,"first_win","153",TRUE,"right",1,"1","first_time",0.4875,"cd5","General","Restaurant",24,"M",2.5,0.81,60,3,0,"Gain"
"918",42,"first_win","38",TRUE,"right",1,"1","first_time",0.5125,"cd5","General","Restaurant",24,"M",2.5,0.81,60,3,1,"Gain"
"919",43,"first_win","375",TRUE,"right",1,"1","first_time",0.5375,"cd5","General","Restaurant",24,"M",2.5,0.81,60,3,1,"Gain"
"920",44,"first_win","0",TRUE,"right",1,"1","first_time",0.5625,"cd5","General","Restaurant",24,"M",2.5,0.81,60,3,1,"Gain"
"921",45,"first_win","221",TRUE,"right",0,"1","first_time",0.5625,"cd5","General","Restaurant",24,"M",2.5,0.81,60,3,1,"Gain"
"922",46,"first_win","129",TRUE,"right",1,"1","first_time",0.5875,"cd5","General","Restaurant",24,"M",2.5,0.81,60,3,0,"Gain"
"923",47,"first_win","1",TRUE,"right",1,"1","first_time",0.6125,"cd5","General","Restaurant",24,"M",2.5,0.81,60,3,1,"Gain"
"924",48,"first_win","190",TRUE,"right",1,"1","first_time",0.6375,"cd5","General","Restaurant",24,"M",2.5,0.81,60,3,1,"Gain"
"925",49,"first_win","144",TRUE,"right",1,"1","first_time",0.6625,"cd5","General","Restaurant",24,"M",2.5,0.81,60,3,1,"Gain"
"926",50,"first_win","213",TRUE,"right",0,"1","first_time",0.6625,"cd5","General","Restaurant",24,"M",2.5,0.81,60,3,1,"Gain"
"927",51,"first_win","95",TRUE,"right",0,"1","first_time",0.6625,"cd5","General","Restaurant",24,"M",2.5,0.81,60,3,0,"Gain"
"928",52,"first_win","1",TRUE,"right",1,"1","first_time",0.6875,"cd5","General","Restaurant",24,"M",2.5,0.81,60,3,0,"Gain"
"929",53,"first_win","112",TRUE,"right",1,"1","first_time",0.7125,"cd5","General","Restaurant",24,"M",2.5,0.81,60,3,1,"Gain"
"930",54,"first_win","515",TRUE,"right",1,"1","first_time",0.7375,"cd5","General","Restaurant",24,"M",2.5,0.81,60,3,1,"Gain"
"931",55,"first_win","1",TRUE,"right",1,"1","first_time",0.7625,"cd5","General","Restaurant",24,"M",2.5,0.81,60,3,1,"Gain"
"932",56,"first_win","0",TRUE,"right",0,"1","first_time",0.7625,"cd5","General","Restaurant",24,"M",2.5,0.81,60,3,1,"Gain"
"933",57,"first_win","159",FALSE,"left",0.5,"4","first_time",0.775,"cd5","General","Restaurant",24,"M",2.5,0.81,60,3,0,"Gain"
"934",58,"first_win","201",TRUE,"right",0,"1","first_time",0.775,"cd5","General","Restaurant",24,"M",2.5,0.81,60,3,0,"Gain"
"935",59,"first_win","72",TRUE,"right",0,"1","first_time",0.775,"cd5","General","Restaurant",24,"M",2.5,0.81,60,3,0,"Gain"
"936",60,"first_win","1",TRUE,"right",1,"1","first_time",0.8,"cd5","General","Restaurant",24,"M",2.5,0.81,60,3,0,"Gain"
"937",61,"first_win","0",TRUE,"right",1,"1","first_time",0.825,"cd5","General","Restaurant",24,"M",2.5,0.81,60,4,1,"Gain"
"938",62,"first_win","222",TRUE,"right",1,"1","first_time",0.85,"cd5","General","Restaurant",24,"M",2.5,0.81,60,4,1,"Gain"
"939",63,"first_win","105",TRUE,"right",0,"1","first_time",0.85,"cd5","General","Restaurant",24,"M",2.5,0.81,60,4,1,"Gain"
"940",64,"first_win","13",TRUE,"right",1,"1","first_time",0.875,"cd5","General","Restaurant",24,"M",2.5,0.81,60,4,0,"Gain"
"941",65,"first_win","177",TRUE,"right",0,"1","first_time",0.875,"cd5","General","Restaurant",24,"M",2.5,0.81,60,4,1,"Gain"
"942",66,"first_win","291",TRUE,"right",0,"1","first_time",0.875,"cd5","General","Restaurant",24,"M",2.5,0.81,60,4,0,"Gain"
"943",67,"first_win","299",TRUE,"right",1,"1","first_time",0.9,"cd5","General","Restaurant",24,"M",2.5,0.81,60,4,0,"Gain"
"944",68,"first_win","660",TRUE,"right",1,"1","first_time",0.925,"cd5","General","Restaurant",24,"M",2.5,0.81,60,4,1,"Gain"
"945",69,"first_win","515",TRUE,"right",0,"1","first_time",0.925,"cd5","General","Restaurant",24,"M",2.5,0.81,60,4,1,"Gain"
"946",70,"first_win","0",TRUE,"right",0,"1","first_time",0.925,"cd5","General","Restaurant",24,"M",2.5,0.81,60,4,0,"Gain"
"947",71,"first_win","136",TRUE,"right",0,"1","first_time",0.925,"cd5","General","Restaurant",24,"M",2.5,0.81,60,4,0,"Gain"
"948",72,"first_win","0",TRUE,"right",0,"1","first_time",0.925,"cd5","General","Restaurant",24,"M",2.5,0.81,60,4,0,"Gain"
"949",73,"first_win","267",TRUE,"right",0,"1","first_time",0.925,"cd5","General","Restaurant",24,"M",2.5,0.81,60,4,0,"Gain"
"950",74,"first_win","270",TRUE,"right",1,"1","first_time",0.95,"cd5","General","Restaurant",24,"M",2.5,0.81,60,4,0,"Gain"
"951",75,"first_win","121",TRUE,"right",1,"1","first_time",0.975,"cd5","General","Restaurant",24,"M",2.5,0.81,60,4,1,"Gain"
"952",76,"first_win","198",TRUE,"right",0,"1","first_time",0.975,"cd5","General","Restaurant",24,"M",2.5,0.81,60,4,1,"Gain"
"953",77,"first_win","126",TRUE,"right",0,"1","first_time",0.975,"cd5","General","Restaurant",24,"M",2.5,0.81,60,4,0,"Gain"
"954",78,"first_win","222",TRUE,"right",0,"1","first_time",0.975,"cd5","General","Restaurant",24,"M",2.5,0.81,60,4,0,"Gain"
"955",79,"first_win","54",TRUE,"right",0,"1","first_time",0.975,"cd5","General","Restaurant",24,"M",2.5,0.81,60,4,0,"Gain"
"956",80,"first_win","309",TRUE,"right",1,"1","first_time",1,"cd5","General","Restaurant",24,"M",2.5,0.81,60,4,0,"Gain"
"957",81,"first_win","22",FALSE,"left",0.5,"4","first_time",1.0125,"cd5","General","Restaurant",24,"M",2.5,0.81,60,5,1,"Gain"
"958",82,"first_win","0",TRUE,"right",0,"1","first_time",1.0125,"cd5","General","Restaurant",24,"M",2.5,0.81,60,5,1,"Gain"
"959",83,"first_win","71",TRUE,"right",1,"1","first_time",1.0375,"cd5","General","Restaurant",24,"M",2.5,0.81,60,5,0,"Gain"
"960",84,"first_win","21",TRUE,"right",0,"1","first_time",1.0375,"cd5","General","Restaurant",24,"M",2.5,0.81,60,5,1,"Gain"
"961",85,"first_win","596",TRUE,"right",0,"1","first_time",1.0375,"cd5","General","Restaurant",24,"M",2.5,0.81,60,5,0,"Gain"
"962",86,"first_win","1",TRUE,"right",1,"1","first_time",1.0625,"cd5","General","Restaurant",24,"M",2.5,0.81,60,5,0,"Gain"
"963",87,"first_win","204",TRUE,"right",1,"1","first_time",1.0875,"cd5","General","Restaurant",24,"M",2.5,0.81,60,5,1,"Gain"
"964",88,"first_win","429",TRUE,"right",0,"1","first_time",1.0875,"cd5","General","Restaurant",24,"M",2.5,0.81,60,5,1,"Gain"
"965",89,"first_win","1",TRUE,"right",1,"1","first_time",1.1125,"cd5","General","Restaurant",24,"M",2.5,0.81,60,5,0,"Gain"
"966",90,"first_win","48",TRUE,"right",1,"1","first_time",1.1375,"cd5","General","Restaurant",24,"M",2.5,0.81,60,5,1,"Gain"
"967",91,"first_win","114",TRUE,"right",1,"1","first_time",1.1625,"cd5","General","Restaurant",24,"M",2.5,0.81,60,5,1,"Gain"
"968",92,"first_win","806",TRUE,"right",0,"1","first_time",1.1625,"cd5","General","Restaurant",24,"M",2.5,0.81,60,5,1,"Gain"
"969",93,"first_win","143",TRUE,"right",0,"1","first_time",1.1625,"cd5","General","Restaurant",24,"M",2.5,0.81,60,5,0,"Gain"
"970",94,"first_win","0",TRUE,"right",0,"1","first_time",1.1625,"cd5","General","Restaurant",24,"M",2.5,0.81,60,5,0,"Gain"
"971",95,"first_win","297",TRUE,"right",1,"1","first_time",1.1875,"cd5","General","Restaurant",24,"M",2.5,0.81,60,5,0,"Gain"
"972",96,"first_win","148",TRUE,"right",1,"1","first_time",1.2125,"cd5","General","Restaurant",24,"M",2.5,0.81,60,5,1,"Gain"
"973",97,"first_win","582",TRUE,"right",1,"1","first_time",1.2375,"cd5","General","Restaurant",24,"M",2.5,0.81,60,5,1,"Gain"
"974",98,"first_win","608",TRUE,"right",1,"1","first_time",1.2625,"cd5","General","Restaurant",24,"M",2.5,0.81,60,5,1,"Gain"
"975",99,"first_win","560",TRUE,"right",1,"1","first_time",1.2875,"cd5","General","Restaurant",24,"M",2.5,0.81,60,5,1,"Gain"
"976",100,"first_win","548",TRUE,"right",0,"1","first_time",1.2875,"cd5","General","Restaurant",24,"M",2.5,0.81,60,5,1,"Gain"
"1096",1,"first_win","3413",TRUE,"left",1,"1","first_time",0.025,"cd6","General","Hospital",24,"F",1.25,0.02,0,1,NA,"Gain"
"1097",2,"first_win","2817",TRUE,"left",0,"1","first_time",0.025,"cd6","General","Hospital",24,"F",1.25,0.02,0,1,1,"Gain"
"1098",3,"first_win","2693",FALSE,"right",0.5,"4","first_time",0.0375,"cd6","General","Hospital",24,"F",1.25,0.02,0,1,0,"Gain"
"1099",4,"first_win","3999",FALSE,"right",0.5,"4","first_time",0.05,"cd6","General","Hospital",24,"F",1.25,0.02,0,1,0,"Gain"
"1100",5,"first_win","2861",FALSE,"right",0.5,"4","first_time",0.0625,"cd6","General","Hospital",24,"F",1.25,0.02,0,1,0,"Gain"
"1101",6,"first_win","3496",FALSE,"right",0.5,"4","first_time",0.075,"cd6","General","Hospital",24,"F",1.25,0.02,0,1,0,"Gain"
"1102",7,"first_win","1929",FALSE,"right",0.5,"4","first_time",0.0875,"cd6","General","Hospital",24,"F",1.25,0.02,0,1,0,"Gain"
"1103",8,"first_win","1569",FALSE,"right",0.5,"4","first_time",0.1,"cd6","General","Hospital",24,"F",1.25,0.02,0,1,0,"Gain"
"1104",9,"first_win","1613",FALSE,"right",0.5,"4","first_time",0.1125,"cd6","General","Hospital",24,"F",1.25,0.02,0,1,0,"Gain"
"1105",10,"first_win","2188",FALSE,"right",0.5,"4","first_time",0.125,"cd6","General","Hospital",24,"F",1.25,0.02,0,1,0,"Gain"
"1106",11,"first_win","952",FALSE,"right",0.5,"4","first_time",0.1375,"cd6","General","Hospital",24,"F",1.25,0.02,0,1,0,"Gain"
"1107",12,"first_win","981",FALSE,"right",0.5,"4","first_time",0.15,"cd6","General","Hospital",24,"F",1.25,0.02,0,1,0,"Gain"
"1108",13,"first_win","949",FALSE,"right",0.5,"4","first_time",0.1625,"cd6","General","Hospital",24,"F",1.25,0.02,0,1,0,"Gain"
"1109",14,"first_win","884",FALSE,"right",0.5,"4","first_time",0.175,"cd6","General","Hospital",24,"F",1.25,0.02,0,1,0,"Gain"
"1110",15,"first_win","2656",FALSE,"right",0.5,"4","first_time",0.1875,"cd6","General","Hospital",24,"F",1.25,0.02,0,1,0,"Gain"
"1111",16,"first_win","1012",FALSE,"right",0.5,"4","first_time",0.2,"cd6","General","Hospital",24,"F",1.25,0.02,0,1,0,"Gain"
"1112",17,"first_win","608",FALSE,"right",0.5,"4","first_time",0.2125,"cd6","General","Hospital",24,"F",1.25,0.02,0,1,0,"Gain"
"1113",18,"first_win","757",FALSE,"right",0.5,"4","first_time",0.225,"cd6","General","Hospital",24,"F",1.25,0.02,0,1,0,"Gain"
"1114",19,"first_win","1010",FALSE,"right",0.5,"4","first_time",0.2375,"cd6","General","Hospital",24,"F",1.25,0.02,0,1,0,"Gain"
"1115",20,"first_win","679",FALSE,"right",0.5,"4","first_time",0.25,"cd6","General","Hospital",24,"F",1.25,0.02,0,1,0,"Gain"
"1116",21,"first_win","857",FALSE,"right",0.5,"4","first_time",0.2625,"cd6","General","Hospital",24,"F",1.25,0.02,0,2,0,"Gain"
"1117",22,"first_win","0",FALSE,"right",0.5,"4","first_time",0.275,"cd6","General","Hospital",24,"F",1.25,0.02,0,2,0,"Gain"
"1118",23,"first_win","565",FALSE,"right",0.5,"4","first_time",0.2875,"cd6","General","Hospital",24,"F",1.25,0.02,0,2,0,"Gain"
"1119",24,"first_win","559",FALSE,"right",0.5,"4","first_time",0.3,"cd6","General","Hospital",24,"F",1.25,0.02,0,2,0,"Gain"
"1120",25,"first_win","468",FALSE,"right",0.5,"4","first_time",0.3125,"cd6","General","Hospital",24,"F",1.25,0.02,0,2,0,"Gain"
"1121",26,"first_win","548",FALSE,"right",0.5,"4","first_time",0.325,"cd6","General","Hospital",24,"F",1.25,0.02,0,2,0,"Gain"
"1122",27,"first_win","551",FALSE,"right",0.5,"4","first_time",0.3375,"cd6","General","Hospital",24,"F",1.25,0.02,0,2,0,"Gain"
"1123",28,"first_win","561",FALSE,"right",0.5,"4","first_time",0.35,"cd6","General","Hospital",24,"F",1.25,0.02,0,2,0,"Gain"
"1124",29,"first_win","559",FALSE,"right",0.5,"4","first_time",0.3625,"cd6","General","Hospital",24,"F",1.25,0.02,0,2,0,"Gain"
"1125",30,"first_win","675",FALSE,"right",0.5,"4","first_time",0.375,"cd6","General","Hospital",24,"F",1.25,0.02,0,2,0,"Gain"
"1126",31,"first_win","688",FALSE,"right",0.5,"4","first_time",0.3875,"cd6","General","Hospital",24,"F",1.25,0.02,0,2,0,"Gain"
"1127",32,"first_win","1974",FALSE,"right",0.5,"4","first_time",0.4,"cd6","General","Hospital",24,"F",1.25,0.02,0,2,0,"Gain"
"1128",33,"first_win","517",FALSE,"right",0.5,"4","first_time",0.4125,"cd6","General","Hospital",24,"F",1.25,0.02,0,2,0,"Gain"
"1129",34,"first_win","455",FALSE,"right",0.5,"4","first_time",0.425,"cd6","General","Hospital",24,"F",1.25,0.02,0,2,0,"Gain"
"1130",35,"first_win","594",FALSE,"right",0.5,"4","first_time",0.4375,"cd6","General","Hospital",24,"F",1.25,0.02,0,2,0,"Gain"
"1131",36,"first_win","1246",FALSE,"right",0.5,"4","first_time",0.45,"cd6","General","Hospital",24,"F",1.25,0.02,0,2,0,"Gain"
"1132",37,"first_win","665",FALSE,"right",0.5,"4","first_time",0.4625,"cd6","General","Hospital",24,"F",1.25,0.02,0,2,0,"Gain"
"1133",38,"first_win","596",FALSE,"right",0.5,"4","first_time",0.475,"cd6","General","Hospital",24,"F",1.25,0.02,0,2,0,"Gain"
"1134",39,"first_win","393",FALSE,"right",0.5,"4","first_time",0.4875,"cd6","General","Hospital",24,"F",1.25,0.02,0,2,0,"Gain"
"1135",40,"first_win","555",FALSE,"right",0.5,"4","first_time",0.5,"cd6","General","Hospital",24,"F",1.25,0.02,0,2,0,"Gain"
"1136",41,"first_win","574",FALSE,"right",0.5,"4","first_time",0.5125,"cd6","General","Hospital",24,"F",1.25,0.02,0,3,0,"Gain"
"1137",42,"first_win","206",FALSE,"right",0.5,"4","first_time",0.525,"cd6","General","Hospital",24,"F",1.25,0.02,0,3,0,"Gain"
"1138",43,"first_win","682",FALSE,"right",0.5,"4","first_time",0.5375,"cd6","General","Hospital",24,"F",1.25,0.02,0,3,0,"Gain"
"1139",44,"first_win","573",FALSE,"right",0.5,"4","first_time",0.55,"cd6","General","Hospital",24,"F",1.25,0.02,0,3,0,"Gain"
"1140",45,"first_win","556",FALSE,"right",0.5,"4","first_time",0.5625,"cd6","General","Hospital",24,"F",1.25,0.02,0,3,0,"Gain"
"1141",46,"first_win","456",FALSE,"right",0.5,"4","first_time",0.575,"cd6","General","Hospital",24,"F",1.25,0.02,0,3,0,"Gain"
"1142",47,"first_win","589",FALSE,"right",0.5,"4","first_time",0.5875,"cd6","General","Hospital",24,"F",1.25,0.02,0,3,0,"Gain"
"1143",48,"first_win","553",FALSE,"right",0.5,"4","first_time",0.6,"cd6","General","Hospital",24,"F",1.25,0.02,0,3,0,"Gain"
"1144",49,"first_win","522",FALSE,"right",0.5,"4","first_time",0.6125,"cd6","General","Hospital",24,"F",1.25,0.02,0,3,0,"Gain"
"1145",50,"first_win","365",FALSE,"right",0.5,"4","first_time",0.625,"cd6","General","Hospital",24,"F",1.25,0.02,0,3,0,"Gain"
"1146",51,"first_win","616",FALSE,"right",0.5,"4","first_time",0.6375,"cd6","General","Hospital",24,"F",1.25,0.02,0,3,0,"Gain"
"1147",52,"first_win","458",FALSE,"right",0.5,"4","first_time",0.65,"cd6","General","Hospital",24,"F",1.25,0.02,0,3,0,"Gain"
"1148",53,"first_win","592",FALSE,"right",0.5,"4","first_time",0.6625,"cd6","General","Hospital",24,"F",1.25,0.02,0,3,0,"Gain"
"1149",54,"first_win","675",FALSE,"right",0.5,"4","first_time",0.675,"cd6","General","Hospital",24,"F",1.25,0.02,0,3,0,"Gain"
"1150",55,"first_win","621",FALSE,"right",0.5,"4","first_time",0.6875,"cd6","General","Hospital",24,"F",1.25,0.02,0,3,0,"Gain"
"1151",56,"first_win","542",FALSE,"right",0.5,"4","first_time",0.7,"cd6","General","Hospital",24,"F",1.25,0.02,0,3,0,"Gain"
"1152",57,"first_win","494",FALSE,"right",0.5,"4","first_time",0.7125,"cd6","General","Hospital",24,"F",1.25,0.02,0,3,0,"Gain"
"1153",58,"first_win","510",FALSE,"right",0.5,"4","first_time",0.725,"cd6","General","Hospital",24,"F",1.25,0.02,0,3,0,"Gain"
"1154",59,"first_win","402",FALSE,"right",0.5,"4","first_time",0.7375,"cd6","General","Hospital",24,"F",1.25,0.02,0,3,0,"Gain"
"1155",60,"first_win","461",FALSE,"right",0.5,"4","first_time",0.75,"cd6","General","Hospital",24,"F",1.25,0.02,0,3,0,"Gain"
"1156",61,"first_win","609",FALSE,"right",0.5,"4","first_time",0.7625,"cd6","General","Hospital",24,"F",1.25,0.02,0,4,0,"Gain"
"1157",62,"first_win","666",FALSE,"right",0.5,"4","first_time",0.775,"cd6","General","Hospital",24,"F",1.25,0.02,0,4,0,"Gain"
"1158",63,"first_win","511",FALSE,"right",0.5,"4","first_time",0.7875,"cd6","General","Hospital",24,"F",1.25,0.02,0,4,0,"Gain"
"1159",64,"first_win","448",FALSE,"right",0.5,"4","first_time",0.8,"cd6","General","Hospital",24,"F",1.25,0.02,0,4,0,"Gain"
"1160",65,"first_win","418",FALSE,"right",0.5,"4","first_time",0.8125,"cd6","General","Hospital",24,"F",1.25,0.02,0,4,0,"Gain"
"1161",66,"first_win","562",FALSE,"right",0.5,"4","first_time",0.825,"cd6","General","Hospital",24,"F",1.25,0.02,0,4,0,"Gain"
"1162",67,"first_win","847",FALSE,"right",0.5,"4","first_time",0.8375,"cd6","General","Hospital",24,"F",1.25,0.02,0,4,0,"Gain"
"1163",68,"first_win","898",FALSE,"right",0.5,"4","first_time",0.85,"cd6","General","Hospital",24,"F",1.25,0.02,0,4,0,"Gain"
"1164",69,"first_win","381",FALSE,"right",0.5,"4","first_time",0.8625,"cd6","General","Hospital",24,"F",1.25,0.02,0,4,0,"Gain"
"1165",70,"first_win","384",FALSE,"right",0.5,"4","first_time",0.875,"cd6","General","Hospital",24,"F",1.25,0.02,0,4,0,"Gain"
"1166",71,"first_win","660",FALSE,"right",0.5,"4","first_time",0.8875,"cd6","General","Hospital",24,"F",1.25,0.02,0,4,0,"Gain"
"1167",72,"first_win","479",FALSE,"right",0.5,"4","first_time",0.9,"cd6","General","Hospital",24,"F",1.25,0.02,0,4,0,"Gain"
"1168",73,"first_win","564",FALSE,"right",0.5,"4","first_time",0.9125,"cd6","General","Hospital",24,"F",1.25,0.02,0,4,0,"Gain"
"1169",74,"first_win","390",FALSE,"right",0.5,"4","first_time",0.925,"cd6","General","Hospital",24,"F",1.25,0.02,0,4,0,"Gain"
"1170",75,"first_win","271",FALSE,"right",0.5,"4","first_time",0.9375,"cd6","General","Hospital",24,"F",1.25,0.02,0,4,0,"Gain"
"1171",76,"first_win","473",FALSE,"right",0.5,"4","first_time",0.95,"cd6","General","Hospital",24,"F",1.25,0.02,0,4,0,"Gain"
"1172",77,"first_win","271",FALSE,"right",0.5,"4","first_time",0.9625,"cd6","General","Hospital",24,"F",1.25,0.02,0,4,0,"Gain"
"1173",78,"first_win","465",FALSE,"right",0.5,"4","first_time",0.975,"cd6","General","Hospital",24,"F",1.25,0.02,0,4,0,"Gain"
"1174",79,"first_win","307",FALSE,"right",0.5,"4","first_time",0.9875,"cd6","General","Hospital",24,"F",1.25,0.02,0,4,0,"Gain"
"1175",80,"first_win","392",FALSE,"right",0.5,"4","first_time",1,"cd6","General","Hospital",24,"F",1.25,0.02,0,4,0,"Gain"
"1176",81,"first_win","633",FALSE,"right",0.5,"4","first_time",1.0125,"cd6","General","Hospital",24,"F",1.25,0.02,0,5,0,"Gain"
"1177",82,"first_win","603",FALSE,"right",0.5,"4","first_time",1.025,"cd6","General","Hospital",24,"F",1.25,0.02,0,5,0,"Gain"
"1178",83,"first_win","490",FALSE,"right",0.5,"4","first_time",1.0375,"cd6","General","Hospital",24,"F",1.25,0.02,0,5,0,"Gain"
"1179",84,"first_win","570",FALSE,"right",0.5,"4","first_time",1.05,"cd6","General","Hospital",24,"F",1.25,0.02,0,5,0,"Gain"
"1180",85,"first_win","622",FALSE,"right",0.5,"4","first_time",1.0625,"cd6","General","Hospital",24,"F",1.25,0.02,0,5,0,"Gain"
"1181",86,"first_win","398",FALSE,"right",0.5,"4","first_time",1.075,"cd6","General","Hospital",24,"F",1.25,0.02,0,5,0,"Gain"
"1182",87,"first_win","1075",FALSE,"right",0.5,"4","first_time",1.0875,"cd6","General","Hospital",24,"F",1.25,0.02,0,5,0,"Gain"
"1183",88,"first_win","412",FALSE,"right",0.5,"4","first_time",1.1,"cd6","General","Hospital",24,"F",1.25,0.02,0,5,0,"Gain"
"1184",89,"first_win","438",FALSE,"right",0.5,"4","first_time",1.1125,"cd6","General","Hospital",24,"F",1.25,0.02,0,5,0,"Gain"
"1185",90,"first_win","650",FALSE,"right",0.5,"4","first_time",1.125,"cd6","General","Hospital",24,"F",1.25,0.02,0,5,0,"Gain"
"1186",91,"first_win","438",FALSE,"right",0.5,"4","first_time",1.1375,"cd6","General","Hospital",24,"F",1.25,0.02,0,5,0,"Gain"
"1187",92,"first_win","523",FALSE,"right",0.5,"4","first_time",1.15,"cd6","General","Hospital",24,"F",1.25,0.02,0,5,0,"Gain"
"1188",93,"first_win","422",FALSE,"right",0.5,"4","first_time",1.1625,"cd6","General","Hospital",24,"F",1.25,0.02,0,5,0,"Gain"
"1189",94,"first_win","459",FALSE,"right",0.5,"4","first_time",1.175,"cd6","General","Hospital",24,"F",1.25,0.02,0,5,0,"Gain"
"1190",95,"first_win","375",FALSE,"right",0.5,"4","first_time",1.1875,"cd6","General","Hospital",24,"F",1.25,0.02,0,5,0,"Gain"
"1191",96,"first_win","513",FALSE,"right",0.5,"4","first_time",1.2,"cd6","General","Hospital",24,"F",1.25,0.02,0,5,0,"Gain"
"1192",97,"first_win","468",FALSE,"right",0.5,"4","first_time",1.2125,"cd6","General","Hospital",24,"F",1.25,0.02,0,5,0,"Gain"
"1193",98,"first_win","673",FALSE,"right",0.5,"4","first_time",1.225,"cd6","General","Hospital",24,"F",1.25,0.02,0,5,0,"Gain"
"1194",99,"first_win","534",FALSE,"right",0.5,"4","first_time",1.2375,"cd6","General","Hospital",24,"F",1.25,0.02,0,5,0,"Gain"
"1195",100,"first_win","263",FALSE,"right",0.5,"4","first_time",1.25,"cd6","General","Hospital",24,"F",1.25,0.02,0,5,0,"Gain"
"1315",1,"first_win","-1",NA,NA,-1,NA,"first_time",0,"cd7","Episodic","Hospital",19,"F",2.5,0.252525252525253,40,1,NA,"Gain"
"1316",2,"first_win","893",TRUE,"left",1,"3","first_time",0.025,"cd7","Episodic","Hospital",19,"F",2.5,0.252525252525253,40,1,NA,"Gain"
"1317",3,"first_win","2520",TRUE,"left",0,"3","first_time",0.025,"cd7","Episodic","Hospital",19,"F",2.5,0.252525252525253,40,1,1,"Gain"
"1318",4,"first_win","1408",TRUE,"left",1,"3","first_time",0.05,"cd7","Episodic","Hospital",19,"F",2.5,0.252525252525253,40,1,0,"Gain"
"1319",5,"first_win","384",FALSE,"right",0.5,"4","first_time",0.0625,"cd7","Episodic","Hospital",19,"F",2.5,0.252525252525253,40,1,1,"Gain"
"1320",6,"first_win","388",FALSE,"right",0.5,"4","first_time",0.075,"cd7","Episodic","Hospital",19,"F",2.5,0.252525252525253,40,1,1,"Gain"
"1321",7,"first_win","460",FALSE,"right",0.5,"4","first_time",0.0875,"cd7","Episodic","Hospital",19,"F",2.5,0.252525252525253,40,1,1,"Gain"
"1322",8,"first_win","338",TRUE,"left",0,"3","first_time",0.0875,"cd7","Episodic","Hospital",19,"F",2.5,0.252525252525253,40,1,1,"Gain"
"1323",9,"first_win","324",TRUE,"left",1,"3","first_time",0.1125,"cd7","Episodic","Hospital",19,"F",2.5,0.252525252525253,40,1,0,"Gain"
"1324",10,"first_win","691",TRUE,"left",0,"3","first_time",0.1125,"cd7","Episodic","Hospital",19,"F",2.5,0.252525252525253,40,1,1,"Gain"
"1325",11,"first_win","349",TRUE,"left",1,"3","first_time",0.1375,"cd7","Episodic","Hospital",19,"F",2.5,0.252525252525253,40,1,0,"Gain"
"1326",12,"first_win","505",TRUE,"left",0,"3","first_time",0.1375,"cd7","Episodic","Hospital",19,"F",2.5,0.252525252525253,40,1,1,"Gain"
"1327",13,"first_win","485",TRUE,"left",0,"3","first_time",0.1375,"cd7","Episodic","Hospital",19,"F",2.5,0.252525252525253,40,1,0,"Gain"
"1328",14,"first_win","205",TRUE,"left",1,"3","first_time",0.1625,"cd7","Episodic","Hospital",19,"F",2.5,0.252525252525253,40,1,0,"Gain"
"1329",15,"first_win","376",FALSE,"right",0.5,"4","first_time",0.175,"cd7","Episodic","Hospital",19,"F",2.5,0.252525252525253,40,1,1,"Gain"
"1330",16,"first_win","234",FALSE,"right",0.5,"4","first_time",0.1875,"cd7","Episodic","Hospital",19,"F",2.5,0.252525252525253,40,1,1,"Gain"
"1331",17,"first_win","256",FALSE,"right",0.5,"4","first_time",0.2,"cd7","Episodic","Hospital",19,"F",2.5,0.252525252525253,40,1,1,"Gain"
"1332",18,"first_win","274",FALSE,"right",0.5,"4","first_time",0.2125,"cd7","Episodic","Hospital",19,"F",2.5,0.252525252525253,40,1,1,"Gain"
"1333",19,"first_win","199",FALSE,"right",0.5,"4","first_time",0.225,"cd7","Episodic","Hospital",19,"F",2.5,0.252525252525253,40,1,1,"Gain"
"1334",20,"first_win","299",TRUE,"left",0,"3","first_time",0.225,"cd7","Episodic","Hospital",19,"F",2.5,0.252525252525253,40,1,1,"Gain"
"1335",21,"first_win","924",TRUE,"left",0,"3","first_time",0.225,"cd7","Episodic","Hospital",19,"F",2.5,0.252525252525253,40,2,0,"Gain"
"1336",22,"first_win","215",TRUE,"left",0,"3","first_time",0.225,"cd7","Episodic","Hospital",19,"F",2.5,0.252525252525253,40,2,0,"Gain"
"1337",23,"first_win","226",TRUE,"left",0,"3","first_time",0.225,"cd7","Episodic","Hospital",19,"F",2.5,0.252525252525253,40,2,0,"Gain"
"1338",24,"first_win","252",FALSE,"right",0.5,"4","first_time",0.2375,"cd7","Episodic","Hospital",19,"F",2.5,0.252525252525253,40,2,0,"Gain"
"1339",25,"first_win","230",FALSE,"right",0.5,"4","first_time",0.25,"cd7","Episodic","Hospital",19,"F",2.5,0.252525252525253,40,2,0,"Gain"
"1340",26,"first_win","254",FALSE,"right",0.5,"4","first_time",0.2625,"cd7","Episodic","Hospital",19,"F",2.5,0.252525252525253,40,2,0,"Gain"
"1341",27,"first_win","345",FALSE,"right",0.5,"4","first_time",0.275,"cd7","Episodic","Hospital",19,"F",2.5,0.252525252525253,40,2,0,"Gain"
"1342",28,"first_win","192",FALSE,"right",0.5,"4","first_time",0.2875,"cd7","Episodic","Hospital",19,"F",2.5,0.252525252525253,40,2,0,"Gain"
"1343",29,"first_win","233",FALSE,"right",0.5,"4","first_time",0.3,"cd7","Episodic","Hospital",19,"F",2.5,0.252525252525253,40,2,0,"Gain"
"1344",30,"first_win","327",FALSE,"right",0.5,"4","first_time",0.3125,"cd7","Episodic","Hospital",19,"F",2.5,0.252525252525253,40,2,0,"Gain"
"1345",31,"first_win","402",FALSE,"right",0.5,"4","first_time",0.325,"cd7","Episodic","Hospital",19,"F",2.5,0.252525252525253,40,2,0,"Gain"
"1346",32,"first_win","285",FALSE,"right",0.5,"4","first_time",0.3375,"cd7","Episodic","Hospital",19,"F",2.5,0.252525252525253,40,2,0,"Gain"
"1347",33,"first_win","161",FALSE,"right",0.5,"4","first_time",0.35,"cd7","Episodic","Hospital",19,"F",2.5,0.252525252525253,40,2,0,"Gain"
"1348",34,"first_win","243",FALSE,"right",0.5,"4","first_time",0.3625,"cd7","Episodic","Hospital",19,"F",2.5,0.252525252525253,40,2,0,"Gain"
"1349",35,"first_win","334",FALSE,"right",0.5,"4","first_time",0.375,"cd7","Episodic","Hospital",19,"F",2.5,0.252525252525253,40,2,0,"Gain"
"1350",36,"first_win","264",FALSE,"right",0.5,"4","first_time",0.3875,"cd7","Episodic","Hospital",19,"F",2.5,0.252525252525253,40,2,0,"Gain"
"1351",37,"first_win","377",FALSE,"right",0.5,"4","first_time",0.4,"cd7","Episodic","Hospital",19,"F",2.5,0.252525252525253,40,2,0,"Gain"
"1352",38,"first_win","275",FALSE,"right",0.5,"4","first_time",0.4125,"cd7","Episodic","Hospital",19,"F",2.5,0.252525252525253,40,2,0,"Gain"
"1353",39,"first_win","139",TRUE,"left",1,"3","first_time",0.4375,"cd7","Episodic","Hospital",19,"F",2.5,0.252525252525253,40,2,0,"Gain"
"1354",40,"first_win","201",FALSE,"right",0.5,"4","first_time",0.45,"cd7","Episodic","Hospital",19,"F",2.5,0.252525252525253,40,2,1,"Gain"
"1355",41,"first_win","356",FALSE,"right",0.5,"4","first_time",0.4625,"cd7","Episodic","Hospital",19,"F",2.5,0.252525252525253,40,3,1,"Gain"
"1356",42,"first_win","380",FALSE,"right",0.5,"4","first_time",0.475,"cd7","Episodic","Hospital",19,"F",2.5,0.252525252525253,40,3,1,"Gain"
"1357",43,"first_win","599",FALSE,"right",0.5,"4","first_time",0.4875,"cd7","Episodic","Hospital",19,"F",2.5,0.252525252525253,40,3,1,"Gain"
"1358",44,"first_win","322",FALSE,"right",0.5,"4","first_time",0.5,"cd7","Episodic","Hospital",19,"F",2.5,0.252525252525253,40,3,1,"Gain"
"1359",45,"first_win","244",FALSE,"right",0.5,"4","first_time",0.5125,"cd7","Episodic","Hospital",19,"F",2.5,0.252525252525253,40,3,1,"Gain"
"1360",46,"first_win","247",FALSE,"right",0.5,"4","first_time",0.525,"cd7","Episodic","Hospital",19,"F",2.5,0.252525252525253,40,3,1,"Gain"
"1361",47,"first_win","1",FALSE,"right",0.5,"4","first_time",0.5375,"cd7","Episodic","Hospital",19,"F",2.5,0.252525252525253,40,3,1,"Gain"
"1362",48,"first_win","137",TRUE,"left",1,"3","first_time",0.5625,"cd7","Episodic","Hospital",19,"F",2.5,0.252525252525253,40,3,1,"Gain"
"1363",49,"first_win","167",FALSE,"right",0.5,"4","first_time",0.575,"cd7","Episodic","Hospital",19,"F",2.5,0.252525252525253,40,3,1,"Gain"
"1364",50,"first_win","437",FALSE,"right",0.5,"4","first_time",0.5875,"cd7","Episodic","Hospital",19,"F",2.5,0.252525252525253,40,3,1,"Gain"
"1365",51,"first_win","240",FALSE,"right",0.5,"4","first_time",0.6,"cd7","Episodic","Hospital",19,"F",2.5,0.252525252525253,40,3,1,"Gain"
"1366",52,"first_win","305",FALSE,"right",0.5,"4","first_time",0.6125,"cd7","Episodic","Hospital",19,"F",2.5,0.252525252525253,40,3,1,"Gain"
"1367",53,"first_win","0",TRUE,"left",1,"3","first_time",0.6375,"cd7","Episodic","Hospital",19,"F",2.5,0.252525252525253,40,3,1,"Gain"
"1368",54,"first_win","250",FALSE,"right",0.5,"4","first_time",0.65,"cd7","Episodic","Hospital",19,"F",2.5,0.252525252525253,40,3,1,"Gain"
"1369",55,"first_win","313",FALSE,"right",0.5,"4","first_time",0.6625,"cd7","Episodic","Hospital",19,"F",2.5,0.252525252525253,40,3,1,"Gain"
"1370",56,"first_win","289",FALSE,"right",0.5,"4","first_time",0.675,"cd7","Episodic","Hospital",19,"F",2.5,0.252525252525253,40,3,1,"Gain"
"1371",57,"first_win","434",FALSE,"right",0.5,"4","first_time",0.6875,"cd7","Episodic","Hospital",19,"F",2.5,0.252525252525253,40,3,1,"Gain"
"1372",58,"first_win","220",TRUE,"left",1,"3","first_time",0.7125,"cd7","Episodic","Hospital",19,"F",2.5,0.252525252525253,40,3,1,"Gain"
"1373",59,"first_win","287",FALSE,"right",0.5,"4","first_time",0.725,"cd7","Episodic","Hospital",19,"F",2.5,0.252525252525253,40,3,1,"Gain"
"1374",60,"first_win","193",FALSE,"right",0.5,"4","first_time",0.7375,"cd7","Episodic","Hospital",19,"F",2.5,0.252525252525253,40,3,1,"Gain"
"1375",61,"first_win","180",FALSE,"right",0.5,"4","first_time",0.75,"cd7","Episodic","Hospital",19,"F",2.5,0.252525252525253,40,4,1,"Gain"
"1376",62,"first_win","243",FALSE,"right",0.5,"4","first_time",0.7625,"cd7","Episodic","Hospital",19,"F",2.5,0.252525252525253,40,4,1,"Gain"
"1377",63,"first_win","236",TRUE,"left",1,"3","first_time",0.7875,"cd7","Episodic","Hospital",19,"F",2.5,0.252525252525253,40,4,1,"Gain"
"1378",64,"first_win","268",FALSE,"right",0.5,"4","first_time",0.8,"cd7","Episodic","Hospital",19,"F",2.5,0.252525252525253,40,4,1,"Gain"
"1379",65,"first_win","195",FALSE,"right",0.5,"4","first_time",0.8125,"cd7","Episodic","Hospital",19,"F",2.5,0.252525252525253,40,4,1,"Gain"
"1380",66,"first_win","177",FALSE,"right",0.5,"4","first_time",0.825,"cd7","Episodic","Hospital",19,"F",2.5,0.252525252525253,40,4,1,"Gain"
"1381",67,"first_win","260",FALSE,"right",0.5,"4","first_time",0.8375,"cd7","Episodic","Hospital",19,"F",2.5,0.252525252525253,40,4,1,"Gain"
"1382",68,"first_win","179",FALSE,"right",0.5,"4","first_time",0.85,"cd7","Episodic","Hospital",19,"F",2.5,0.252525252525253,40,4,1,"Gain"
"1383",69,"first_win","173",TRUE,"left",1,"3","first_time",0.875,"cd7","Episodic","Hospital",19,"F",2.5,0.252525252525253,40,4,1,"Gain"
"1384",70,"first_win","40",FALSE,"right",0.5,"4","first_time",0.8875,"cd7","Episodic","Hospital",19,"F",2.5,0.252525252525253,40,4,1,"Gain"
"1385",71,"first_win","170",FALSE,"right",0.5,"4","first_time",0.9,"cd7","Episodic","Hospital",19,"F",2.5,0.252525252525253,40,4,1,"Gain"
"1386",72,"first_win","298",FALSE,"right",0.5,"4","first_time",0.9125,"cd7","Episodic","Hospital",19,"F",2.5,0.252525252525253,40,4,1,"Gain"
"1387",73,"first_win","227",FALSE,"right",0.5,"4","first_time",0.925,"cd7","Episodic","Hospital",19,"F",2.5,0.252525252525253,40,4,1,"Gain"
"1388",74,"first_win","622",TRUE,"left",0,"3","first_time",0.925,"cd7","Episodic","Hospital",19,"F",2.5,0.252525252525253,40,4,1,"Gain"
"1389",75,"first_win","698",FALSE,"right",0.5,"4","first_time",0.9375,"cd7","Episodic","Hospital",19,"F",2.5,0.252525252525253,40,4,0,"Gain"
"1390",76,"first_win","261",FALSE,"right",0.5,"4","first_time",0.95,"cd7","Episodic","Hospital",19,"F",2.5,0.252525252525253,40,4,0,"Gain"
"1391",77,"first_win","181",FALSE,"right",0.5,"4","first_time",0.9625,"cd7","Episodic","Hospital",19,"F",2.5,0.252525252525253,40,4,0,"Gain"
"1392",78,"first_win","192",FALSE,"right",0.5,"4","first_time",0.975,"cd7","Episodic","Hospital",19,"F",2.5,0.252525252525253,40,4,0,"Gain"
"1393",79,"first_win","362",FALSE,"right",0.5,"4","first_time",0.9875,"cd7","Episodic","Hospital",19,"F",2.5,0.252525252525253,40,4,0,"Gain"
"1394",80,"first_win","180",FALSE,"right",0.5,"4","first_time",1,"cd7","Episodic","Hospital",19,"F",2.5,0.252525252525253,40,4,0,"Gain"
"1395",81,"first_win","255",FALSE,"right",0.5,"4","first_time",1.0125,"cd7","Episodic","Hospital",19,"F",2.5,0.252525252525253,40,5,0,"Gain"
"1396",82,"first_win","186",TRUE,"left",0,"3","first_time",1.0125,"cd7","Episodic","Hospital",19,"F",2.5,0.252525252525253,40,5,0,"Gain"
"1397",83,"first_win","459",TRUE,"left",0,"3","first_time",1.0125,"cd7","Episodic","Hospital",19,"F",2.5,0.252525252525253,40,5,0,"Gain"
"1398",84,"first_win","382",FALSE,"right",0.5,"4","first_time",1.025,"cd7","Episodic","Hospital",19,"F",2.5,0.252525252525253,40,5,0,"Gain"
"1399",85,"first_win","274",FALSE,"right",0.5,"4","first_time",1.0375,"cd7","Episodic","Hospital",19,"F",2.5,0.252525252525253,40,5,0,"Gain"
"1400",86,"first_win","128",FALSE,"right",0.5,"4","first_time",1.05,"cd7","Episodic","Hospital",19,"F",2.5,0.252525252525253,40,5,0,"Gain"
"1401",87,"first_win","389",FALSE,"right",0.5,"4","first_time",1.0625,"cd7","Episodic","Hospital",19,"F",2.5,0.252525252525253,40,5,0,"Gain"
"1402",88,"first_win","220",FALSE,"right",0.5,"4","first_time",1.075,"cd7","Episodic","Hospital",19,"F",2.5,0.252525252525253,40,5,0,"Gain"
"1403",89,"first_win","217",TRUE,"left",1,"3","first_time",1.1,"cd7","Episodic","Hospital",19,"F",2.5,0.252525252525253,40,5,0,"Gain"
"1404",90,"first_win","292",FALSE,"right",0.5,"4","first_time",1.1125,"cd7","Episodic","Hospital",19,"F",2.5,0.252525252525253,40,5,1,"Gain"
"1405",91,"first_win","214",FALSE,"right",0.5,"4","first_time",1.125,"cd7","Episodic","Hospital",19,"F",2.5,0.252525252525253,40,5,1,"Gain"
"1406",92,"first_win","336",FALSE,"right",0.5,"4","first_time",1.1375,"cd7","Episodic","Hospital",19,"F",2.5,0.252525252525253,40,5,1,"Gain"
"1407",93,"first_win","217",FALSE,"right",0.5,"4","first_time",1.15,"cd7","Episodic","Hospital",19,"F",2.5,0.252525252525253,40,5,1,"Gain"
"1408",94,"first_win","347",TRUE,"left",0,"3","first_time",1.15,"cd7","Episodic","Hospital",19,"F",2.5,0.252525252525253,40,5,1,"Gain"
"1409",95,"first_win","334",FALSE,"right",0.5,"4","first_time",1.1625,"cd7","Episodic","Hospital",19,"F",2.5,0.252525252525253,40,5,0,"Gain"
"1410",96,"first_win","211",FALSE,"right",0.5,"4","first_time",1.175,"cd7","Episodic","Hospital",19,"F",2.5,0.252525252525253,40,5,0,"Gain"
"1411",97,"first_win","174",FALSE,"right",0.5,"4","first_time",1.1875,"cd7","Episodic","Hospital",19,"F",2.5,0.252525252525253,40,5,0,"Gain"
"1412",98,"first_win","178",FALSE,"right",0.5,"4","first_time",1.2,"cd7","Episodic","Hospital",19,"F",2.5,0.252525252525253,40,5,0,"Gain"
"1413",99,"first_win","541",FALSE,"right",0.5,"4","first_time",1.2125,"cd7","Episodic","Hospital",19,"F",2.5,0.252525252525253,40,5,0,"Gain"
"1414",100,"first_win","188",FALSE,"right",0.5,"4","first_time",1.225,"cd7","Episodic","Hospital",19,"F",2.5,0.252525252525253,40,5,0,"Gain"
"1534",1,"second_win","2838",FALSE,"left",0.5,"3","first_time",0.0125,"cd8","Episodic","Hospital",21,"F",0,0.52,70,1,NA,"Gain"
"1535",2,"second_win","2168",FALSE,"left",0.5,"3","first_time",0.025,"cd8","Episodic","Hospital",21,"F",0,0.52,70,1,NA,"Gain"
"1536",3,"second_win","2221",FALSE,"left",0.5,"3","first_time",0.0375,"cd8","Episodic","Hospital",21,"F",0,0.52,70,1,NA,"Gain"
"1537",4,"second_win","1089",TRUE,"right",0,"4","first_time",0.0375,"cd8","Episodic","Hospital",21,"F",0,0.52,70,1,NA,"Gain"
"1538",5,"second_win","1565",FALSE,"left",0.5,"3","first_time",0.05,"cd8","Episodic","Hospital",21,"F",0,0.52,70,1,0,"Gain"
"1539",6,"second_win","1159",FALSE,"left",0.5,"3","first_time",0.0625,"cd8","Episodic","Hospital",21,"F",0,0.52,70,1,0,"Gain"
"1540",7,"second_win","1235",FALSE,"left",0.5,"3","first_time",0.075,"cd8","Episodic","Hospital",21,"F",0,0.52,70,1,0,"Gain"
"1541",8,"second_win","952",TRUE,"right",1,"4","first_time",0.1,"cd8","Episodic","Hospital",21,"F",0,0.52,70,1,0,"Gain"
"1542",9,"second_win","1293",TRUE,"right",0,"4","first_time",0.1,"cd8","Episodic","Hospital",21,"F",0,0.52,70,1,1,"Gain"
"1543",10,"second_win","391",TRUE,"right",1,"4","first_time",0.125,"cd8","Episodic","Hospital",21,"F",0,0.52,70,1,0,"Gain"
"1544",11,"second_win","1400",FALSE,"left",0.5,"3","first_time",0.1375,"cd8","Episodic","Hospital",21,"F",0,0.52,70,1,1,"Gain"
"1545",12,"second_win","638",FALSE,"left",0.5,"3","first_time",0.15,"cd8","Episodic","Hospital",21,"F",0,0.52,70,1,1,"Gain"
"1546",13,"second_win","650",TRUE,"right",1,"4","first_time",0.175,"cd8","Episodic","Hospital",21,"F",0,0.52,70,1,1,"Gain"
"1547",14,"second_win","671",TRUE,"right",1,"4","first_time",0.2,"cd8","Episodic","Hospital",21,"F",0,0.52,70,1,1,"Gain"
"1548",15,"second_win","394",TRUE,"right",0,"4","first_time",0.2,"cd8","Episodic","Hospital",21,"F",0,0.52,70,1,1,"Gain"
"1549",16,"second_win","349",TRUE,"right",0,"4","first_time",0.2,"cd8","Episodic","Hospital",21,"F",0,0.52,70,1,0,"Gain"
"1550",17,"second_win","1977",FALSE,"left",0.5,"3","first_time",0.2125,"cd8","Episodic","Hospital",21,"F",0,0.52,70,1,0,"Gain"
"1551",18,"second_win","397",FALSE,"left",0.5,"3","first_time",0.225,"cd8","Episodic","Hospital",21,"F",0,0.52,70,1,0,"Gain"
"1552",19,"second_win","380",TRUE,"right",1,"4","first_time",0.25,"cd8","Episodic","Hospital",21,"F",0,0.52,70,1,0,"Gain"
"1553",20,"second_win","1310",FALSE,"left",0.5,"3","first_time",0.2625,"cd8","Episodic","Hospital",21,"F",0,0.52,70,1,1,"Gain"
"1554",21,"second_win","553",TRUE,"right",0,"4","first_time",0.2625,"cd8","Episodic","Hospital",21,"F",0,0.52,70,2,1,"Gain"
"1555",22,"second_win","326",FALSE,"left",0.5,"3","first_time",0.275,"cd8","Episodic","Hospital",21,"F",0,0.52,70,2,0,"Gain"
"1556",23,"second_win","359",FALSE,"left",0.5,"3","first_time",0.2875,"cd8","Episodic","Hospital",21,"F",0,0.52,70,2,0,"Gain"
"1557",24,"second_win","429",FALSE,"left",0.5,"3","first_time",0.3,"cd8","Episodic","Hospital",21,"F",0,0.52,70,2,0,"Gain"
"1558",25,"second_win","457",FALSE,"left",0.5,"3","first_time",0.3125,"cd8","Episodic","Hospital",21,"F",0,0.52,70,2,0,"Gain"
"1559",26,"second_win","360",FALSE,"left",0.5,"3","first_time",0.325,"cd8","Episodic","Hospital",21,"F",0,0.52,70,2,0,"Gain"
"1560",27,"second_win","629",TRUE,"right",0,"4","first_time",0.325,"cd8","Episodic","Hospital",21,"F",0,0.52,70,2,0,"Gain"
"1561",28,"second_win","680",TRUE,"right",0,"4","first_time",0.325,"cd8","Episodic","Hospital",21,"F",0,0.52,70,2,0,"Gain"
"1562",29,"second_win","870",FALSE,"left",0.5,"3","first_time",0.3375,"cd8","Episodic","Hospital",21,"F",0,0.52,70,2,0,"Gain"
"1563",30,"second_win","308",FALSE,"left",0.5,"3","first_time",0.35,"cd8","Episodic","Hospital",21,"F",0,0.52,70,2,0,"Gain"
"1564",31,"second_win","612",FALSE,"left",0.5,"3","first_time",0.3625,"cd8","Episodic","Hospital",21,"F",0,0.52,70,2,0,"Gain"
"1565",32,"second_win","672",FALSE,"left",0.5,"3","first_time",0.375,"cd8","Episodic","Hospital",21,"F",0,0.52,70,2,0,"Gain"
"1566",33,"second_win","718",FALSE,"left",0.5,"3","first_time",0.3875,"cd8","Episodic","Hospital",21,"F",0,0.52,70,2,0,"Gain"
"1567",34,"second_win","819",FALSE,"left",0.5,"3","first_time",0.4,"cd8","Episodic","Hospital",21,"F",0,0.52,70,2,0,"Gain"
"1568",35,"second_win","456",TRUE,"right",1,"4","first_time",0.425,"cd8","Episodic","Hospital",21,"F",0,0.52,70,2,0,"Gain"
"1569",36,"second_win","526",TRUE,"right",1,"4","first_time",0.45,"cd8","Episodic","Hospital",21,"F",0,0.52,70,2,1,"Gain"
"1570",37,"second_win","435",TRUE,"right",0,"4","first_time",0.45,"cd8","Episodic","Hospital",21,"F",0,0.52,70,2,1,"Gain"
"1571",38,"second_win","401",TRUE,"right",0,"4","first_time",0.45,"cd8","Episodic","Hospital",21,"F",0,0.52,70,2,0,"Gain"
"1572",39,"second_win","407",TRUE,"right",1,"4","first_time",0.475,"cd8","Episodic","Hospital",21,"F",0,0.52,70,2,0,"Gain"
"1573",40,"second_win","326",TRUE,"right",0,"4","first_time",0.475,"cd8","Episodic","Hospital",21,"F",0,0.52,70,2,1,"Gain"
"1574",41,"second_win","218",TRUE,"right",0,"4","first_time",0.475,"cd8","Episodic","Hospital",21,"F",0,0.52,70,3,0,"Gain"
"1575",42,"second_win","301",TRUE,"right",0,"4","first_time",0.475,"cd8","Episodic","Hospital",21,"F",0,0.52,70,3,0,"Gain"
"1576",43,"second_win","315",TRUE,"right",1,"4","first_time",0.5,"cd8","Episodic","Hospital",21,"F",0,0.52,70,3,0,"Gain"
"1577",44,"second_win","1164",TRUE,"right",0,"4","first_time",0.5,"cd8","Episodic","Hospital",21,"F",0,0.52,70,3,1,"Gain"
"1578",45,"second_win","265",FALSE,"left",0.5,"3","first_time",0.5125,"cd8","Episodic","Hospital",21,"F",0,0.52,70,3,0,"Gain"
"1579",46,"second_win","318",FALSE,"left",0.5,"3","first_time",0.525,"cd8","Episodic","Hospital",21,"F",0,0.52,70,3,0,"Gain"
"1580",47,"second_win","308",FALSE,"left",0.5,"3","first_time",0.5375,"cd8","Episodic","Hospital",21,"F",0,0.52,70,3,0,"Gain"
"1581",48,"second_win","405",TRUE,"right",0,"4","first_time",0.5375,"cd8","Episodic","Hospital",21,"F",0,0.52,70,3,0,"Gain"
"1582",49,"second_win","344",TRUE,"right",1,"4","first_time",0.5625,"cd8","Episodic","Hospital",21,"F",0,0.52,70,3,0,"Gain"
"1583",50,"second_win","518",FALSE,"left",0.5,"3","first_time",0.575,"cd8","Episodic","Hospital",21,"F",0,0.52,70,3,1,"Gain"
"1584",51,"second_win","307",TRUE,"right",1,"4","first_time",0.6,"cd8","Episodic","Hospital",21,"F",0,0.52,70,3,1,"Gain"
"1585",52,"second_win","406",FALSE,"left",0.5,"3","first_time",0.6125,"cd8","Episodic","Hospital",21,"F",0,0.52,70,3,1,"Gain"
"1586",53,"second_win","500",TRUE,"right",0,"4","first_time",0.6125,"cd8","Episodic","Hospital",21,"F",0,0.52,70,3,1,"Gain"
"1587",54,"second_win","321",FALSE,"left",0.5,"3","first_time",0.625,"cd8","Episodic","Hospital",21,"F",0,0.52,70,3,0,"Gain"
"1588",55,"second_win","279",TRUE,"right",1,"4","first_time",0.65,"cd8","Episodic","Hospital",21,"F",0,0.52,70,3,0,"Gain"
"1589",56,"second_win","378",FALSE,"left",0.5,"3","first_time",0.6625,"cd8","Episodic","Hospital",21,"F",0,0.52,70,3,1,"Gain"
"1590",57,"second_win","417",TRUE,"right",1,"4","first_time",0.6875,"cd8","Episodic","Hospital",21,"F",0,0.52,70,3,1,"Gain"
"1591",58,"second_win","443",FALSE,"left",0.5,"3","first_time",0.7,"cd8","Episodic","Hospital",21,"F",0,0.52,70,3,1,"Gain"
"1592",59,"second_win","416",TRUE,"right",1,"4","first_time",0.725,"cd8","Episodic","Hospital",21,"F",0,0.52,70,3,1,"Gain"
"1593",60,"second_win","372",FALSE,"left",0.5,"3","first_time",0.7375,"cd8","Episodic","Hospital",21,"F",0,0.52,70,3,1,"Gain"
"1594",61,"second_win","267",TRUE,"right",1,"4","first_time",0.7625,"cd8","Episodic","Hospital",21,"F",0,0.52,70,4,1,"Gain"
"1595",62,"second_win","357",FALSE,"left",0.5,"3","first_time",0.775,"cd8","Episodic","Hospital",21,"F",0,0.52,70,4,1,"Gain"
"1596",63,"second_win","441",TRUE,"right",1,"4","first_time",0.8,"cd8","Episodic","Hospital",21,"F",0,0.52,70,4,1,"Gain"
"1597",64,"second_win","566",FALSE,"left",0.5,"3","first_time",0.8125,"cd8","Episodic","Hospital",21,"F",0,0.52,70,4,1,"Gain"
"1598",65,"second_win","643",TRUE,"right",1,"4","first_time",0.8375,"cd8","Episodic","Hospital",21,"F",0,0.52,70,4,1,"Gain"
"1599",66,"second_win","437",FALSE,"left",0.5,"3","first_time",0.85,"cd8","Episodic","Hospital",21,"F",0,0.52,70,4,1,"Gain"
"1600",67,"second_win","407",TRUE,"right",0,"4","first_time",0.85,"cd8","Episodic","Hospital",21,"F",0,0.52,70,4,1,"Gain"
"1601",68,"second_win","369",FALSE,"left",0.5,"3","first_time",0.8625,"cd8","Episodic","Hospital",21,"F",0,0.52,70,4,0,"Gain"
"1602",69,"second_win","894",TRUE,"right",0,"4","first_time",0.8625,"cd8","Episodic","Hospital",21,"F",0,0.52,70,4,0,"Gain"
"1603",70,"second_win","389",TRUE,"right",0,"4","first_time",0.8625,"cd8","Episodic","Hospital",21,"F",0,0.52,70,4,0,"Gain"
