"","trial","outcome_condition","rt","chose_risky","key_pressed","reward","color","session","total_earned","participant","condition","video","age","gender","risk_first_to_mind","total_risk","judged_percent","block","last_risk"
"1",0,-1,"1993",TRUE,"left",1,"4","first_time",0.025,"1",-1,"Restaurant",31,"F",1,0.43,0,1,NA
"2",0.0101010101010101,-1,"1273",TRUE,"left",0,"4","first_time",0.025,"1",-1,"Restaurant",31,"F",1,0.43,0,1,1
"3",0.0202020202020202,-1,"1050",TRUE,"left",1,"4","first_time",0.05,"1",-1,"Restaurant",31,"F",1,0.43,0,1,0
"4",0.0303030303030303,-1,"3005",TRUE,"left",0,"4","first_time",0.05,"1",-1,"Restaurant",31,"F",1,0.43,0,1,1
"5",0.0404040404040404,-1,"379",TRUE,"left",1,"4","first_time",0.075,"1",-1,"Restaurant",31,"F",1,0.43,0,1,0
"6",0.0505050505050505,-1,"787",FALSE,"right",0.5,"3","first_time",0.0875,"1",-1,"Restaurant",31,"F",1,0.43,0,1,1
"7",0.0606060606060606,-1,"913",TRUE,"left",0,"4","first_time",0.0875,"1",-1,"Restaurant",31,"F",1,0.43,0,1,1
"8",0.0707070707070707,-1,"271",TRUE,"left",0,"4","first_time",0.0875,"1",-1,"Restaurant",31,"F",1,0.43,0,1,0
"9",0.0808080808080808,-1,"715",TRUE,"left",0,"4","first_time",0.0875,"1",-1,"Restaurant",31,"F",1,0.43,0,1,0
"10",0.0909090909090909,-1,"1699",TRUE,"left",1,"4","first_time",0.1125,"1",-1,"Restaurant",31,"F",1,0.43,0,1,0
"11",0.101010101010101,-1,"424",FALSE,"right",0.5,"3","first_time",0.125,"1",-1,"Restaurant",31,"F",1,0.43,0,2,1
"12",0.111111111111111,-1,"457",FALSE,"right",0.5,"3","first_time",0.1375,"1",-1,"Restaurant",31,"F",1,0.43,0,2,1
"13",0.121212121212121,-1,"559",FALSE,"right",0.5,"3","first_time",0.15,"1",-1,"Restaurant",31,"F",1,0.43,0,2,1
"14",0.131313131313131,-1,"581",TRUE,"left",1,"4","first_time",0.175,"1",-1,"Restaurant",31,"F",1,0.43,0,2,1
"15",0.141414141414141,-1,"363",FALSE,"right",0.5,"3","first_time",0.1875,"1",-1,"Restaurant",31,"F",1,0.43,0,2,1
"16",0.151515151515152,-1,"579",FALSE,"right",0.5,"3","first_time",0.2,"1",-1,"Restaurant",31,"F",1,0.43,0,2,1
"17",0.161616161616162,-1,"536",FALSE,"right",0.5,"3","first_time",0.2125,"1",-1,"Restaurant",31,"F",1,0.43,0,2,1
"18",0.171717171717172,-1,"346",TRUE,"left",1,"4","first_time",0.2375,"1",-1,"Restaurant",31,"F",1,0.43,0,2,1
"19",0.181818181818182,-1,"520",FALSE,"right",0.5,"3","first_time",0.25,"1",-1,"Restaurant",31,"F",1,0.43,0,2,1
"20",0.191919191919192,-1,"478",FALSE,"right",0.5,"3","first_time",0.2625,"1",-1,"Restaurant",31,"F",1,0.43,0,2,1
"21",0.202020202020202,-1,"484",FALSE,"right",0.5,"3","first_time",0.275,"1",-1,"Restaurant",31,"F",1,0.43,0,3,1
"22",0.212121212121212,-1,"425",TRUE,"left",1,"4","first_time",0.3,"1",-1,"Restaurant",31,"F",1,0.43,0,3,1
"23",0.222222222222222,-1,"1599",TRUE,"left",0,"4","first_time",0.3,"1",-1,"Restaurant",31,"F",1,0.43,0,3,1
"24",0.232323232323232,-1,"529",FALSE,"right",0.5,"3","first_time",0.3125,"1",-1,"Restaurant",31,"F",1,0.43,0,3,0
"25",0.242424242424242,-1,"471",FALSE,"right",0.5,"3","first_time",0.325,"1",-1,"Restaurant",31,"F",1,0.43,0,3,0
"26",0.252525252525253,-1,"406",TRUE,"left",1,"4","first_time",0.35,"1",-1,"Restaurant",31,"F",1,0.43,0,3,0
"27",0.262626262626263,-1,"306",FALSE,"right",0.5,"3","first_time",0.3625,"1",-1,"Restaurant",31,"F",1,0.43,0,3,1
"28",0.272727272727273,-1,"427",FALSE,"right",0.5,"3","first_time",0.375,"1",-1,"Restaurant",31,"F",1,0.43,0,3,1
"29",0.282828282828283,-1,"428",FALSE,"right",0.5,"3","first_time",0.3875,"1",-1,"Restaurant",31,"F",1,0.43,0,3,1
"30",0.292929292929293,-1,"303",TRUE,"left",0,"4","first_time",0.3875,"1",-1,"Restaurant",31,"F",1,0.43,0,3,1
"31",0.303030303030303,-1,"379",TRUE,"left",0,"4","first_time",0.3875,"1",-1,"Restaurant",31,"F",1,0.43,0,4,0
"32",0.313131313131313,-1,"211",TRUE,"left",1,"4","first_time",0.4125,"1",-1,"Restaurant",31,"F",1,0.43,0,4,0
"33",0.323232323232323,-1,"440",FALSE,"right",0.5,"3","first_time",0.425,"1",-1,"Restaurant",31,"F",1,0.43,0,4,1
"34",0.333333333333333,-1,"340",FALSE,"right",0.5,"3","first_time",0.4375,"1",-1,"Restaurant",31,"F",1,0.43,0,4,1
"35",0.343434343434343,-1,"304",TRUE,"left",0,"4","first_time",0.4375,"1",-1,"Restaurant",31,"F",1,0.43,0,4,1
"36",0.353535353535354,-1,"250",TRUE,"left",0,"4","first_time",0.4375,"1",-1,"Restaurant",31,"F",1,0.43,0,4,0
"37",0.363636363636364,-1,"977",TRUE,"left",1,"4","first_time",0.4625,"1",-1,"Restaurant",31,"F",1,0.43,0,4,0
"38",0.373737373737374,-1,"348",FALSE,"right",0.5,"3","first_time",0.475,"1",-1,"Restaurant",31,"F",1,0.43,0,4,1
"39",0.383838383838384,-1,"354",FALSE,"right",0.5,"3","first_time",0.4875,"1",-1,"Restaurant",31,"F",1,0.43,0,4,1
"40",0.393939393939394,-1,"344",TRUE,"left",0,"4","first_time",0.4875,"1",-1,"Restaurant",31,"F",1,0.43,0,4,1
"41",0.404040404040404,-1,"286",FALSE,"right",0.5,"3","first_time",0.5,"1",-1,"Restaurant",31,"F",1,0.43,0,5,0
"42",0.414141414141414,-1,"793",FALSE,"right",0.5,"3","first_time",0.5125,"1",-1,"Restaurant",31,"F",1,0.43,0,5,0
"43",0.424242424242424,-1,"367",TRUE,"left",0,"4","first_time",0.5125,"1",-1,"Restaurant",31,"F",1,0.43,0,5,0
"44",0.434343434343434,-1,"272",FALSE,"right",0.5,"3","first_time",0.525,"1",-1,"Restaurant",31,"F",1,0.43,0,5,0
"45",0.444444444444444,-1,"593",FALSE,"right",0.5,"3","first_time",0.5375,"1",-1,"Restaurant",31,"F",1,0.43,0,5,0
"46",0.454545454545455,-1,"416",TRUE,"left",1,"4","first_time",0.5625,"1",-1,"Restaurant",31,"F",1,0.43,0,5,0
"47",0.464646464646465,-1,"374",FALSE,"right",0.5,"3","first_time",0.575,"1",-1,"Restaurant",31,"F",1,0.43,0,5,1
"48",0.474747474747475,-1,"307",FALSE,"right",0.5,"3","first_time",0.5875,"1",-1,"Restaurant",31,"F",1,0.43,0,5,1
"49",0.484848484848485,-1,"327",FALSE,"right",0.5,"3","first_time",0.6,"1",-1,"Restaurant",31,"F",1,0.43,0,5,1
"50",0.494949494949495,-1,"267",FALSE,"right",0.5,"3","first_time",0.6125,"1",-1,"Restaurant",31,"F",1,0.43,0,5,1
"51",0.505050505050505,-1,"336",TRUE,"left",0,"4","first_time",0.6125,"1",-1,"Restaurant",31,"F",1,0.43,0,6,1
"52",0.515151515151515,-1,"457",TRUE,"left",1,"4","first_time",0.6375,"1",-1,"Restaurant",31,"F",1,0.43,0,6,0
"53",0.525252525252525,-1,"334",FALSE,"right",0.5,"3","first_time",0.65,"1",-1,"Restaurant",31,"F",1,0.43,0,6,1
"54",0.535353535353535,-1,"563",TRUE,"left",0,"4","first_time",0.65,"1",-1,"Restaurant",31,"F",1,0.43,0,6,1
"55",0.545454545454545,-1,"303",TRUE,"left",1,"4","first_time",0.675,"1",-1,"Restaurant",31,"F",1,0.43,0,6,0
"56",0.555555555555556,-1,"450",FALSE,"right",0.5,"3","first_time",0.6875,"1",-1,"Restaurant",31,"F",1,0.43,0,6,1
"57",0.565656565656566,-1,"381",FALSE,"right",0.5,"3","first_time",0.7,"1",-1,"Restaurant",31,"F",1,0.43,0,6,1
"58",0.575757575757576,-1,"583",FALSE,"right",0.5,"3","first_time",0.7125,"1",-1,"Restaurant",31,"F",1,0.43,0,6,1
"59",0.585858585858586,-1,"243",TRUE,"left",0,"4","first_time",0.7125,"1",-1,"Restaurant",31,"F",1,0.43,0,6,1
"60",0.595959595959596,-1,"267",TRUE,"left",0,"4","first_time",0.7125,"1",-1,"Restaurant",31,"F",1,0.43,0,6,0
"61",0.606060606060606,-1,"2441",TRUE,"left",1,"4","first_time",0.7375,"1",-1,"Restaurant",31,"F",1,0.43,0,7,0
"62",0.616161616161616,-1,"463",TRUE,"left",0,"4","first_time",0.7375,"1",-1,"Restaurant",31,"F",1,0.43,0,7,1
"63",0.626262626262626,-1,"351",FALSE,"right",0.5,"3","first_time",0.75,"1",-1,"Restaurant",31,"F",1,0.43,0,7,0
"64",0.636363636363636,-1,"711",FALSE,"right",0.5,"3","first_time",0.7625,"1",-1,"Restaurant",31,"F",1,0.43,0,7,0
"65",0.646464646464647,-1,"275",FALSE,"right",0.5,"3","first_time",0.775,"1",-1,"Restaurant",31,"F",1,0.43,0,7,0
"66",0.656565656565657,-1,"551",FALSE,"right",0.5,"3","first_time",0.7875,"1",-1,"Restaurant",31,"F",1,0.43,0,7,0
"67",0.666666666666667,-1,"275",TRUE,"left",1,"4","first_time",0.8125,"1",-1,"Restaurant",31,"F",1,0.43,0,7,0
"68",0.676767676767677,-1,"388",FALSE,"right",0.5,"3","first_time",0.825,"1",-1,"Restaurant",31,"F",1,0.43,0,7,1
"69",0.686868686868687,-1,"742",FALSE,"right",0.5,"3","first_time",0.8375,"1",-1,"Restaurant",31,"F",1,0.43,0,7,1
"70",0.696969696969697,-1,"395",FALSE,"right",0.5,"3","first_time",0.85,"1",-1,"Restaurant",31,"F",1,0.43,0,7,1
"71",0.707070707070707,-1,"496",TRUE,"left",1,"4","first_time",0.875,"1",-1,"Restaurant",31,"F",1,0.43,0,8,1
"72",0.717171717171717,-1,"400",FALSE,"right",0.5,"3","first_time",0.8875,"1",-1,"Restaurant",31,"F",1,0.43,0,8,1
"73",0.727272727272727,-1,"271",FALSE,"right",0.5,"3","first_time",0.9,"1",-1,"Restaurant",31,"F",1,0.43,0,8,1
"74",0.737373737373737,-1,"293",FALSE,"right",0.5,"3","first_time",0.9125,"1",-1,"Restaurant",31,"F",1,0.43,0,8,1
"75",0.747474747474748,-1,"368",FALSE,"right",0.5,"3","first_time",0.925,"1",-1,"Restaurant",31,"F",1,0.43,0,8,1
"76",0.757575757575758,-1,"284",TRUE,"left",1,"4","first_time",0.95,"1",-1,"Restaurant",31,"F",1,0.43,0,8,1
"77",0.767676767676768,-1,"272",FALSE,"right",0.5,"3","first_time",0.9625,"1",-1,"Restaurant",31,"F",1,0.43,0,8,1
"78",0.777777777777778,-1,"246",FALSE,"right",0.5,"3","first_time",0.975,"1",-1,"Restaurant",31,"F",1,0.43,0,8,1
"79",0.787878787878788,-1,"377",FALSE,"right",0.5,"3","first_time",0.9875,"1",-1,"Restaurant",31,"F",1,0.43,0,8,1
"80",0.797979797979798,-1,"1028",TRUE,"left",1,"4","first_time",1.0125,"1",-1,"Restaurant",31,"F",1,0.43,0,8,1
"81",0.808080808080808,-1,"294",FALSE,"right",0.5,"3","first_time",1.025,"1",-1,"Restaurant",31,"F",1,0.43,0,9,1
"82",0.818181818181818,-1,"298",FALSE,"right",0.5,"3","first_time",1.0375,"1",-1,"Restaurant",31,"F",1,0.43,0,9,1
"83",0.828282828282828,-1,"253",FALSE,"right",0.5,"3","first_time",1.05,"1",-1,"Restaurant",31,"F",1,0.43,0,9,1
"84",0.838383838383838,-1,"242",TRUE,"left",0,"4","first_time",1.05,"1",-1,"Restaurant",31,"F",1,0.43,0,9,1
"85",0.848484848484849,-1,"270",TRUE,"left",1,"4","first_time",1.075,"1",-1,"Restaurant",31,"F",1,0.43,0,9,0
"86",0.858585858585859,-1,"282",FALSE,"right",0.5,"3","first_time",1.0875,"1",-1,"Restaurant",31,"F",1,0.43,0,9,1
"87",0.868686868686869,-1,"372",FALSE,"right",0.5,"3","first_time",1.1,"1",-1,"Restaurant",31,"F",1,0.43,0,9,1
"88",0.878787878787879,-1,"394",FALSE,"right",0.5,"3","first_time",1.1125,"1",-1,"Restaurant",31,"F",1,0.43,0,9,1
"89",0.888888888888889,-1,"628",FALSE,"right",0.5,"3","first_time",1.125,"1",-1,"Restaurant",31,"F",1,0.43,0,9,1
"90",0.898989898989899,-1,"529",TRUE,"left",1,"4","first_time",1.15,"1",-1,"Restaurant",31,"F",1,0.43,0,9,1
"91",0.909090909090909,-1,"569",FALSE,"right",0.5,"3","first_time",1.1625,"1",-1,"Restaurant",31,"F",1,0.43,0,10,1
"92",0.919191919191919,-1,"342",FALSE,"right",0.5,"3","first_time",1.175,"1",-1,"Restaurant",31,"F",1,0.43,0,10,1
"93",0.929292929292929,-1,"308",FALSE,"right",0.5,"3","first_time",1.1875,"1",-1,"Restaurant",31,"F",1,0.43,0,10,1
"94",0.939393939393939,-1,"193",FALSE,"right",0.5,"3","first_time",1.2,"1",-1,"Restaurant",31,"F",1,0.43,0,10,1
"95",0.94949494949495,-1,"296",TRUE,"left",0,"4","first_time",1.2,"1",-1,"Restaurant",31,"F",1,0.43,0,10,1
"96",0.95959595959596,-1,"170",TRUE,"left",0,"4","first_time",1.2,"1",-1,"Restaurant",31,"F",1,0.43,0,10,0
"97",0.96969696969697,-1,"272",TRUE,"left",0,"4","first_time",1.2,"1",-1,"Restaurant",31,"F",1,0.43,0,10,0
"98",0.97979797979798,-1,"413",TRUE,"left",0,"4","first_time",1.2,"1",-1,"Restaurant",31,"F",1,0.43,0,10,0
"99",0.98989898989899,-1,"486",TRUE,"left",0,"4","first_time",1.2,"1",-1,"Restaurant",31,"F",1,0.43,0,10,0
"100",1,-1,"74",FALSE,"right",0.5,"3","first_time",1.2125,"1",-1,"Restaurant",31,"F",1,0.43,0,10,0
"220",0,1,"-1",NA,NA,-1,NA,"first_time",0,"2",-1,"Restaurant",34,"F",-1,0.3,0,1,NA
"221",0.0101010101010101,1,"1238",TRUE,"right",0,"4","first_time",0,"2",-1,"Restaurant",34,"F",-1,0.3,0,1,NA
"222",0.0202020202020202,1,"2064",FALSE,"left",0.5,"2","first_time",0.0125,"2",-1,"Restaurant",34,"F",-1,0.3,0,1,0
"223",0.0303030303030303,1,"1918",FALSE,"left",0.5,"2","first_time",0.025,"2",-1,"Restaurant",34,"F",-1,0.3,0,1,0
"224",0.0404040404040404,1,"1402",TRUE,"right",1,"4","first_time",0.05,"2",-1,"Restaurant",34,"F",-1,0.3,0,1,0
"225",0.0505050505050505,1,"1416",FALSE,"left",0.5,"2","first_time",0.0625,"2",-1,"Restaurant",34,"F",-1,0.3,0,1,1
"226",0.0606060606060606,1,"1522",TRUE,"right",0,"4","first_time",0.0625,"2",-1,"Restaurant",34,"F",-1,0.3,0,1,1
"227",0.0707070707070707,1,"824",FALSE,"left",0.5,"2","first_time",0.075,"2",-1,"Restaurant",34,"F",-1,0.3,0,1,0
"228",0.0808080808080808,1,"1760",TRUE,"right",1,"4","first_time",0.1,"2",-1,"Restaurant",34,"F",-1,0.3,0,1,0
"229",0.0909090909090909,1,"724",TRUE,"right",0,"4","first_time",0.1,"2",-1,"Restaurant",34,"F",-1,0.3,0,1,1
"230",0.101010101010101,1,"431",FALSE,"left",0.5,"2","first_time",0.1125,"2",-1,"Restaurant",34,"F",-1,0.3,0,2,0
"231",0.111111111111111,1,"463",FALSE,"left",0.5,"2","first_time",0.125,"2",-1,"Restaurant",34,"F",-1,0.3,0,2,0
"232",0.121212121212121,1,"1086",FALSE,"left",0.5,"2","first_time",0.1375,"2",-1,"Restaurant",34,"F",-1,0.3,0,2,0
"233",0.131313131313131,1,"451",TRUE,"right",1,"4","first_time",0.1625,"2",-1,"Restaurant",34,"F",-1,0.3,0,2,0
"234",0.141414141414141,1,"397",FALSE,"left",0.5,"2","first_time",0.175,"2",-1,"Restaurant",34,"F",-1,0.3,0,2,1
"235",0.151515151515152,1,"593",TRUE,"right",0,"4","first_time",0.175,"2",-1,"Restaurant",34,"F",-1,0.3,0,2,1
"236",0.161616161616162,1,"645",TRUE,"right",0,"4","first_time",0.175,"2",-1,"Restaurant",34,"F",-1,0.3,0,2,0
"237",0.171717171717172,1,"394",TRUE,"right",0,"4","first_time",0.175,"2",-1,"Restaurant",34,"F",-1,0.3,0,2,0
"238",0.181818181818182,1,"301",FALSE,"left",0.5,"2","first_time",0.1875,"2",-1,"Restaurant",34,"F",-1,0.3,0,2,0
"239",0.191919191919192,1,"433",FALSE,"left",0.5,"2","first_time",0.2,"2",-1,"Restaurant",34,"F",-1,0.3,0,2,0
"240",0.202020202020202,1,"537",FALSE,"left",0.5,"2","first_time",0.2125,"2",-1,"Restaurant",34,"F",-1,0.3,0,3,0
"241",0.212121212121212,1,"476",TRUE,"right",1,"4","first_time",0.2375,"2",-1,"Restaurant",34,"F",-1,0.3,0,3,0
"242",0.222222222222222,1,"505",FALSE,"left",0.5,"2","first_time",0.25,"2",-1,"Restaurant",34,"F",-1,0.3,0,3,1
"243",0.232323232323232,1,"861",FALSE,"left",0.5,"2","first_time",0.2625,"2",-1,"Restaurant",34,"F",-1,0.3,0,3,1
"244",0.242424242424242,1,"816",FALSE,"left",0.5,"2","first_time",0.275,"2",-1,"Restaurant",34,"F",-1,0.3,0,3,1
"245",0.252525252525253,1,"1387",TRUE,"right",1,"4","first_time",0.3,"2",-1,"Restaurant",34,"F",-1,0.3,0,3,1
"246",0.262626262626263,1,"351",FALSE,"left",0.5,"2","first_time",0.3125,"2",-1,"Restaurant",34,"F",-1,0.3,0,3,1
"247",0.272727272727273,1,"276",FALSE,"left",0.5,"2","first_time",0.325,"2",-1,"Restaurant",34,"F",-1,0.3,0,3,1
"248",0.282828282828283,1,"1",FALSE,"left",0.5,"2","first_time",0.3375,"2",-1,"Restaurant",34,"F",-1,0.3,0,3,1
"249",0.292929292929293,1,"242",TRUE,"right",0,"4","first_time",0.3375,"2",-1,"Restaurant",34,"F",-1,0.3,0,3,1
"250",0.303030303030303,1,"470",FALSE,"left",0.5,"2","first_time",0.35,"2",-1,"Restaurant",34,"F",-1,0.3,0,4,0
"251",0.313131313131313,1,"632",TRUE,"right",1,"4","first_time",0.375,"2",-1,"Restaurant",34,"F",-1,0.3,0,4,0
"252",0.323232323232323,1,"364",FALSE,"left",0.5,"2","first_time",0.3875,"2",-1,"Restaurant",34,"F",-1,0.3,0,4,1
"253",0.333333333333333,1,"905",FALSE,"left",0.5,"2","first_time",0.4,"2",-1,"Restaurant",34,"F",-1,0.3,0,4,1
"254",0.343434343434343,1,"735",TRUE,"right",0,"4","first_time",0.4,"2",-1,"Restaurant",34,"F",-1,0.3,0,4,1
"255",0.353535353535354,1,"346",FALSE,"left",0.5,"2","first_time",0.4125,"2",-1,"Restaurant",34,"F",-1,0.3,0,4,0
"256",0.363636363636364,1,"423",FALSE,"left",0.5,"2","first_time",0.425,"2",-1,"Restaurant",34,"F",-1,0.3,0,4,0
"257",0.373737373737374,1,"532",FALSE,"left",0.5,"2","first_time",0.4375,"2",-1,"Restaurant",34,"F",-1,0.3,0,4,0
"258",0.383838383838384,1,"494",FALSE,"left",0.5,"2","first_time",0.45,"2",-1,"Restaurant",34,"F",-1,0.3,0,4,0
"259",0.393939393939394,1,"279",TRUE,"right",0,"4","first_time",0.45,"2",-1,"Restaurant",34,"F",-1,0.3,0,4,0
"260",0.404040404040404,1,"297",FALSE,"left",0.5,"2","first_time",0.4625,"2",-1,"Restaurant",34,"F",-1,0.3,0,5,0
"261",0.414141414141414,1,"325",TRUE,"right",1,"4","first_time",0.4875,"2",-1,"Restaurant",34,"F",-1,0.3,0,5,0
"262",0.424242424242424,1,"545",FALSE,"left",0.5,"2","first_time",0.5,"2",-1,"Restaurant",34,"F",-1,0.3,0,5,1
"263",0.434343434343434,1,"551",FALSE,"left",0.5,"2","first_time",0.5125,"2",-1,"Restaurant",34,"F",-1,0.3,0,5,1
"264",0.444444444444444,1,"716",TRUE,"right",0,"4","first_time",0.5125,"2",-1,"Restaurant",34,"F",-1,0.3,0,5,1
"265",0.454545454545455,1,"268",FALSE,"left",0.5,"2","first_time",0.525,"2",-1,"Restaurant",34,"F",-1,0.3,0,5,0
"266",0.464646464646465,1,"551",FALSE,"left",0.5,"2","first_time",0.5375,"2",-1,"Restaurant",34,"F",-1,0.3,0,5,0
"267",0.474747474747475,1,"277",FALSE,"left",0.5,"2","first_time",0.55,"2",-1,"Restaurant",34,"F",-1,0.3,0,5,0
"268",0.484848484848485,1,"357",FALSE,"left",0.5,"2","first_time",0.5625,"2",-1,"Restaurant",34,"F",-1,0.3,0,5,0
"269",0.494949494949495,1,"565",TRUE,"right",1,"4","first_time",0.5875,"2",-1,"Restaurant",34,"F",-1,0.3,0,5,0
"270",0.505050505050505,1,"392",FALSE,"left",0.5,"2","first_time",0.6,"2",-1,"Restaurant",34,"F",-1,0.3,0,6,1
"271",0.515151515151515,1,"1061",FALSE,"left",0.5,"2","first_time",0.6125,"2",-1,"Restaurant",34,"F",-1,0.3,0,6,1
"272",0.525252525252525,1,"772",TRUE,"right",0,"4","first_time",0.6125,"2",-1,"Restaurant",34,"F",-1,0.3,0,6,1
"273",0.535353535353535,1,"311",FALSE,"left",0.5,"2","first_time",0.625,"2",-1,"Restaurant",34,"F",-1,0.3,0,6,0
"274",0.545454545454545,1,"595",FALSE,"left",0.5,"2","first_time",0.6375,"2",-1,"Restaurant",34,"F",-1,0.3,0,6,0
"275",0.555555555555556,1,"501",FALSE,"left",0.5,"2","first_time",0.65,"2",-1,"Restaurant",34,"F",-1,0.3,0,6,0
"276",0.565656565656566,1,"659",TRUE,"right",1,"4","first_time",0.675,"2",-1,"Restaurant",34,"F",-1,0.3,0,6,0
"277",0.575757575757576,1,"374",FALSE,"left",0.5,"2","first_time",0.6875,"2",-1,"Restaurant",34,"F",-1,0.3,0,6,1
"278",0.585858585858586,1,"383",FALSE,"left",0.5,"2","first_time",0.7,"2",-1,"Restaurant",34,"F",-1,0.3,0,6,1
"279",0.595959595959596,1,"304",FALSE,"left",0.5,"2","first_time",0.7125,"2",-1,"Restaurant",34,"F",-1,0.3,0,6,1
"280",0.606060606060606,1,"277",FALSE,"left",0.5,"2","first_time",0.725,"2",-1,"Restaurant",34,"F",-1,0.3,0,7,1
"281",0.616161616161616,1,"382",FALSE,"left",0.5,"2","first_time",0.7375,"2",-1,"Restaurant",34,"F",-1,0.3,0,7,1
"282",0.626262626262626,1,"769",FALSE,"left",0.5,"2","first_time",0.75,"2",-1,"Restaurant",34,"F",-1,0.3,0,7,1
"283",0.636363636363636,1,"902",TRUE,"right",0,"4","first_time",0.75,"2",-1,"Restaurant",34,"F",-1,0.3,0,7,1
"284",0.646464646464647,1,"465",FALSE,"left",0.5,"2","first_time",0.7625,"2",-1,"Restaurant",34,"F",-1,0.3,0,7,0
"285",0.656565656565657,1,"381",FALSE,"left",0.5,"2","first_time",0.775,"2",-1,"Restaurant",34,"F",-1,0.3,0,7,0
"286",0.666666666666667,1,"289",TRUE,"right",0,"4","first_time",0.775,"2",-1,"Restaurant",34,"F",-1,0.3,0,7,0
"287",0.676767676767677,1,"369",FALSE,"left",0.5,"2","first_time",0.7875,"2",-1,"Restaurant",34,"F",-1,0.3,0,7,0
"288",0.686868686868687,1,"575",TRUE,"right",0,"4","first_time",0.7875,"2",-1,"Restaurant",34,"F",-1,0.3,0,7,0
"289",0.696969696969697,1,"323",FALSE,"left",0.5,"2","first_time",0.8,"2",-1,"Restaurant",34,"F",-1,0.3,0,7,0
"290",0.707070707070707,1,"215",FALSE,"left",0.5,"2","first_time",0.8125,"2",-1,"Restaurant",34,"F",-1,0.3,0,8,0
"291",0.717171717171717,1,"348",FALSE,"left",0.5,"2","first_time",0.825,"2",-1,"Restaurant",34,"F",-1,0.3,0,8,0
"292",0.727272727272727,1,"248",FALSE,"left",0.5,"2","first_time",0.8375,"2",-1,"Restaurant",34,"F",-1,0.3,0,8,0
"293",0.737373737373737,1,"221",FALSE,"left",0.5,"2","first_time",0.85,"2",-1,"Restaurant",34,"F",-1,0.3,0,8,0
"294",0.747474747474748,1,"409",FALSE,"left",0.5,"2","first_time",0.8625,"2",-1,"Restaurant",34,"F",-1,0.3,0,8,0
"295",0.757575757575758,1,"343",FALSE,"left",0.5,"2","first_time",0.875,"2",-1,"Restaurant",34,"F",-1,0.3,0,8,0
"296",0.767676767676768,1,"419",FALSE,"left",0.5,"2","first_time",0.8875,"2",-1,"Restaurant",34,"F",-1,0.3,0,8,0
"297",0.777777777777778,1,"499",FALSE,"left",0.5,"2","first_time",0.9,"2",-1,"Restaurant",34,"F",-1,0.3,0,8,0
"298",0.787878787878788,1,"872",FALSE,"left",0.5,"2","first_time",0.9125,"2",-1,"Restaurant",34,"F",-1,0.3,0,8,0
"299",0.797979797979798,1,"475",TRUE,"right",0,"4","first_time",0.9125,"2",-1,"Restaurant",34,"F",-1,0.3,0,8,0
"300",0.808080808080808,1,"383",FALSE,"left",0.5,"2","first_time",0.925,"2",-1,"Restaurant",34,"F",-1,0.3,0,9,0
"301",0.818181818181818,1,"339",TRUE,"right",1,"4","first_time",0.95,"2",-1,"Restaurant",34,"F",-1,0.3,0,9,0
"302",0.828282828282828,1,"967",TRUE,"right",0,"4","first_time",0.95,"2",-1,"Restaurant",34,"F",-1,0.3,0,9,1
"303",0.838383838383838,1,"420",FALSE,"left",0.5,"2","first_time",0.9625,"2",-1,"Restaurant",34,"F",-1,0.3,0,9,0
"304",0.848484848484849,1,"513",FALSE,"left",0.5,"2","first_time",0.975,"2",-1,"Restaurant",34,"F",-1,0.3,0,9,0
"305",0.858585858585859,1,"331",TRUE,"right",1,"4","first_time",1,"2",-1,"Restaurant",34,"F",-1,0.3,0,9,0
"306",0.868686868686869,1,"508",FALSE,"left",0.5,"2","first_time",1.0125,"2",-1,"Restaurant",34,"F",-1,0.3,0,9,1
"307",0.878787878787879,1,"440",FALSE,"left",0.5,"2","first_time",1.025,"2",-1,"Restaurant",34,"F",-1,0.3,0,9,1
"308",0.888888888888889,1,"476",TRUE,"right",1,"4","first_time",1.05,"2",-1,"Restaurant",34,"F",-1,0.3,0,9,1
"309",0.898989898989899,1,"316",FALSE,"left",0.5,"2","first_time",1.0625,"2",-1,"Restaurant",34,"F",-1,0.3,0,9,1
"310",0.909090909090909,1,"319",FALSE,"left",0.5,"2","first_time",1.075,"2",-1,"Restaurant",34,"F",-1,0.3,0,10,1
"311",0.919191919191919,1,"483",FALSE,"left",0.5,"2","first_time",1.0875,"2",-1,"Restaurant",34,"F",-1,0.3,0,10,1
"312",0.929292929292929,1,"417",FALSE,"left",0.5,"2","first_time",1.1,"2",-1,"Restaurant",34,"F",-1,0.3,0,10,1
"313",0.939393939393939,1,"331",TRUE,"right",0,"4","first_time",1.1,"2",-1,"Restaurant",34,"F",-1,0.3,0,10,1
"314",0.94949494949495,1,"239",FALSE,"left",0.5,"2","first_time",1.1125,"2",-1,"Restaurant",34,"F",-1,0.3,0,10,0
"315",0.95959595959596,1,"531",TRUE,"right",1,"4","first_time",1.1375,"2",-1,"Restaurant",34,"F",-1,0.3,0,10,0
"316",0.96969696969697,1,"685",FALSE,"left",0.5,"2","first_time",1.15,"2",-1,"Restaurant",34,"F",-1,0.3,0,10,1
"317",0.97979797979798,1,"656",FALSE,"left",0.5,"2","first_time",1.1625,"2",-1,"Restaurant",34,"F",-1,0.3,0,10,1
"318",0.98989898989899,1,"341",FALSE,"left",0.5,"2","first_time",1.175,"2",-1,"Restaurant",34,"F",-1,0.3,0,10,1
"319",1,1,"263",FALSE,"left",0.5,"2","first_time",1.1875,"2",-1,"Restaurant",34,"F",-1,0.3,0,10,1
"439",0,-1,"3406",TRUE,"right",1,"3","first_time",0.025,"3",1,"Hospital",21,"F",1,0.43,0,1,NA
"440",0.0101010101010101,-1,"1182",FALSE,"left",0.5,"1","first_time",0.0375,"3",1,"Hospital",21,"F",1,0.43,0,1,1
"441",0.0202020202020202,-1,"1338",FALSE,"left",0.5,"1","first_time",0.05,"3",1,"Hospital",21,"F",1,0.43,0,1,1
"442",0.0303030303030303,-1,"1282",TRUE,"right",0,"3","first_time",0.05,"3",1,"Hospital",21,"F",1,0.43,0,1,1
"443",0.0404040404040404,-1,"1351",TRUE,"right",1,"3","first_time",0.075,"3",1,"Hospital",21,"F",1,0.43,0,1,0
"444",0.0505050505050505,-1,"740",FALSE,"left",0.5,"1","first_time",0.0875,"3",1,"Hospital",21,"F",1,0.43,0,1,1
"445",0.0606060606060606,-1,"2724",FALSE,"left",0.5,"1","first_time",0.1,"3",1,"Hospital",21,"F",1,0.43,0,1,1
"446",0.0707070707070707,-1,"949",TRUE,"right",0,"3","first_time",0.1,"3",1,"Hospital",21,"F",1,0.43,0,1,1
"447",0.0808080808080808,-1,"1251",TRUE,"right",0,"3","first_time",0.1,"3",1,"Hospital",21,"F",1,0.43,0,1,0
"448",0.0909090909090909,-1,"872",TRUE,"right",0,"3","first_time",0.1,"3",1,"Hospital",21,"F",1,0.43,0,1,0
"449",0.101010101010101,-1,"291",FALSE,"left",0.5,"1","first_time",0.1125,"3",1,"Hospital",21,"F",1,0.43,0,2,0
"450",0.111111111111111,-1,"1385",FALSE,"left",0.5,"1","first_time",0.125,"3",1,"Hospital",21,"F",1,0.43,0,2,0
"451",0.121212121212121,-1,"893",FALSE,"left",0.5,"1","first_time",0.1375,"3",1,"Hospital",21,"F",1,0.43,0,2,0
"452",0.131313131313131,-1,"1011",FALSE,"left",0.5,"1","first_time",0.15,"3",1,"Hospital",21,"F",1,0.43,0,2,0
"453",0.141414141414141,-1,"2120",FALSE,"left",0.5,"1","first_time",0.1625,"3",1,"Hospital",21,"F",1,0.43,0,2,0
"454",0.151515151515152,-1,"1253",FALSE,"left",0.5,"1","first_time",0.175,"3",1,"Hospital",21,"F",1,0.43,0,2,0
"455",0.161616161616162,-1,"787",FALSE,"left",0.5,"1","first_time",0.1875,"3",1,"Hospital",21,"F",1,0.43,0,2,0
"456",0.171717171717172,-1,"585",FALSE,"left",0.5,"1","first_time",0.2,"3",1,"Hospital",21,"F",1,0.43,0,2,0
"457",0.181818181818182,-1,"749",FALSE,"left",0.5,"1","first_time",0.2125,"3",1,"Hospital",21,"F",1,0.43,0,2,0
"458",0.191919191919192,-1,"673",FALSE,"left",0.5,"1","first_time",0.225,"3",1,"Hospital",21,"F",1,0.43,0,2,0
"459",0.202020202020202,-1,"1236",FALSE,"left",0.5,"1","first_time",0.2375,"3",1,"Hospital",21,"F",1,0.43,0,3,0
"460",0.212121212121212,-1,"737",FALSE,"left",0.5,"1","first_time",0.25,"3",1,"Hospital",21,"F",1,0.43,0,3,0
"461",0.222222222222222,-1,"533",FALSE,"left",0.5,"1","first_time",0.2625,"3",1,"Hospital",21,"F",1,0.43,0,3,0
"462",0.232323232323232,-1,"506",FALSE,"left",0.5,"1","first_time",0.275,"3",1,"Hospital",21,"F",1,0.43,0,3,0
"463",0.242424242424242,-1,"774",TRUE,"right",1,"3","first_time",0.3,"3",1,"Hospital",21,"F",1,0.43,0,3,0
"464",0.252525252525253,-1,"578",TRUE,"right",1,"3","first_time",0.325,"3",1,"Hospital",21,"F",1,0.43,0,3,1
"465",0.262626262626263,-1,"924",TRUE,"right",1,"3","first_time",0.35,"3",1,"Hospital",21,"F",1,0.43,0,3,1
"466",0.272727272727273,-1,"958",TRUE,"right",1,"3","first_time",0.375,"3",1,"Hospital",21,"F",1,0.43,0,3,1
"467",0.282828282828283,-1,"607",TRUE,"right",1,"3","first_time",0.4,"3",1,"Hospital",21,"F",1,0.43,0,3,1
"468",0.292929292929293,-1,"528",TRUE,"right",1,"3","first_time",0.425,"3",1,"Hospital",21,"F",1,0.43,0,3,1
"469",0.303030303030303,-1,"641",TRUE,"right",0,"3","first_time",0.425,"3",1,"Hospital",21,"F",1,0.43,0,4,1
"470",0.313131313131313,-1,"1336",FALSE,"left",0.5,"1","first_time",0.4375,"3",1,"Hospital",21,"F",1,0.43,0,4,0
"471",0.323232323232323,-1,"708",FALSE,"left",0.5,"1","first_time",0.45,"3",1,"Hospital",21,"F",1,0.43,0,4,0
"472",0.333333333333333,-1,"855",FALSE,"left",0.5,"1","first_time",0.4625,"3",1,"Hospital",21,"F",1,0.43,0,4,0
"473",0.343434343434343,-1,"435",TRUE,"right",1,"3","first_time",0.4875,"3",1,"Hospital",21,"F",1,0.43,0,4,0
"474",0.353535353535354,-1,"446",TRUE,"right",1,"3","first_time",0.5125,"3",1,"Hospital",21,"F",1,0.43,0,4,1
"475",0.363636363636364,-1,"426",TRUE,"right",0,"3","first_time",0.5125,"3",1,"Hospital",21,"F",1,0.43,0,4,1
"476",0.373737373737374,-1,"444",FALSE,"left",0.5,"1","first_time",0.525,"3",1,"Hospital",21,"F",1,0.43,0,4,0
"477",0.383838383838384,-1,"388",TRUE,"right",1,"3","first_time",0.55,"3",1,"Hospital",21,"F",1,0.43,0,4,0
"478",0.393939393939394,-1,"520",TRUE,"right",0,"3","first_time",0.55,"3",1,"Hospital",21,"F",1,0.43,0,4,1
"479",0.404040404040404,-1,"461",FALSE,"left",0.5,"1","first_time",0.5625,"3",1,"Hospital",21,"F",1,0.43,0,5,0
"480",0.414141414141414,-1,"451",FALSE,"left",0.5,"1","first_time",0.575,"3",1,"Hospital",21,"F",1,0.43,0,5,0
"481",0.424242424242424,-1,"428",TRUE,"right",0,"3","first_time",0.575,"3",1,"Hospital",21,"F",1,0.43,0,5,0
"482",0.434343434343434,-1,"650",FALSE,"left",0.5,"1","first_time",0.5875,"3",1,"Hospital",21,"F",1,0.43,0,5,0
"483",0.444444444444444,-1,"646",FALSE,"left",0.5,"1","first_time",0.6,"3",1,"Hospital",21,"F",1,0.43,0,5,0
"484",0.454545454545455,-1,"491",TRUE,"right",0,"3","first_time",0.6,"3",1,"Hospital",21,"F",1,0.43,0,5,0
"485",0.464646464646465,-1,"408",FALSE,"left",0.5,"1","first_time",0.6125,"3",1,"Hospital",21,"F",1,0.43,0,5,0
"486",0.474747474747475,-1,"1080",FALSE,"left",0.5,"1","first_time",0.625,"3",1,"Hospital",21,"F",1,0.43,0,5,0
"487",0.484848484848485,-1,"367",TRUE,"right",1,"3","first_time",0.65,"3",1,"Hospital",21,"F",1,0.43,0,5,0
"488",0.494949494949495,-1,"528",TRUE,"right",1,"3","first_time",0.675,"3",1,"Hospital",21,"F",1,0.43,0,5,1
"489",0.505050505050505,-1,"585",TRUE,"right",0,"3","first_time",0.675,"3",1,"Hospital",21,"F",1,0.43,0,6,1
"490",0.515151515151515,-1,"437",TRUE,"right",1,"3","first_time",0.7,"3",1,"Hospital",21,"F",1,0.43,0,6,0
"491",0.525252525252525,-1,"353",TRUE,"right",0,"3","first_time",0.7,"3",1,"Hospital",21,"F",1,0.43,0,6,1
"492",0.535353535353535,-1,"381",FALSE,"left",0.5,"1","first_time",0.7125,"3",1,"Hospital",21,"F",1,0.43,0,6,0
"493",0.545454545454545,-1,"458",FALSE,"left",0.5,"1","first_time",0.725,"3",1,"Hospital",21,"F",1,0.43,0,6,0
"494",0.555555555555556,-1,"264",TRUE,"right",0,"3","first_time",0.725,"3",1,"Hospital",21,"F",1,0.43,0,6,0
"495",0.565656565656566,-1,"372",FALSE,"left",0.5,"1","first_time",0.7375,"3",1,"Hospital",21,"F",1,0.43,0,6,0
"496",0.575757575757576,-1,"480",TRUE,"right",1,"3","first_time",0.7625,"3",1,"Hospital",21,"F",1,0.43,0,6,0
"497",0.585858585858586,-1,"428",TRUE,"right",0,"3","first_time",0.7625,"3",1,"Hospital",21,"F",1,0.43,0,6,1
"498",0.595959595959596,-1,"855",TRUE,"right",0,"3","first_time",0.7625,"3",1,"Hospital",21,"F",1,0.43,0,6,0
"499",0.606060606060606,-1,"239",FALSE,"left",0.5,"1","first_time",0.775,"3",1,"Hospital",21,"F",1,0.43,0,7,0
"500",0.616161616161616,-1,"740",FALSE,"left",0.5,"1","first_time",0.7875,"3",1,"Hospital",21,"F",1,0.43,0,7,0
"501",0.626262626262626,-1,"489",FALSE,"left",0.5,"1","first_time",0.8,"3",1,"Hospital",21,"F",1,0.43,0,7,0
"502",0.636363636363636,-1,"511",FALSE,"left",0.5,"1","first_time",0.8125,"3",1,"Hospital",21,"F",1,0.43,0,7,0
"503",0.646464646464647,-1,"492",TRUE,"right",1,"3","first_time",0.8375,"3",1,"Hospital",21,"F",1,0.43,0,7,0
"504",0.656565656565657,-1,"458",FALSE,"left",0.5,"1","first_time",0.85,"3",1,"Hospital",21,"F",1,0.43,0,7,1
"505",0.666666666666667,-1,"390",TRUE,"right",1,"3","first_time",0.875,"3",1,"Hospital",21,"F",1,0.43,0,7,1
"506",0.676767676767677,-1,"331",FALSE,"left",0.5,"1","first_time",0.8875,"3",1,"Hospital",21,"F",1,0.43,0,7,1
"507",0.686868686868687,-1,"373",TRUE,"right",0,"3","first_time",0.8875,"3",1,"Hospital",21,"F",1,0.43,0,7,1
"508",0.696969696969697,-1,"656",FALSE,"left",0.5,"1","first_time",0.9,"3",1,"Hospital",21,"F",1,0.43,0,7,0
"509",0.707070707070707,-1,"585",FALSE,"left",0.5,"1","first_time",0.9125,"3",1,"Hospital",21,"F",1,0.43,0,8,0
"510",0.717171717171717,-1,"1503",FALSE,"left",0.5,"1","first_time",0.925,"3",1,"Hospital",21,"F",1,0.43,0,8,0
"511",0.727272727272727,-1,"230",TRUE,"right",1,"3","first_time",0.95,"3",1,"Hospital",21,"F",1,0.43,0,8,0
"512",0.737373737373737,-1,"706",FALSE,"left",0.5,"1","first_time",0.9625,"3",1,"Hospital",21,"F",1,0.43,0,8,1
"513",0.747474747474748,-1,"1453",FALSE,"left",0.5,"1","first_time",0.975,"3",1,"Hospital",21,"F",1,0.43,0,8,1
"514",0.757575757575758,-1,"371",FALSE,"left",0.5,"1","first_time",0.9875,"3",1,"Hospital",21,"F",1,0.43,0,8,1
"515",0.767676767676768,-1,"295",TRUE,"right",1,"3","first_time",1.0125,"3",1,"Hospital",21,"F",1,0.43,0,8,1
"516",0.777777777777778,-1,"682",TRUE,"right",1,"3","first_time",1.0375,"3",1,"Hospital",21,"F",1,0.43,0,8,1
"517",0.787878787878788,-1,"928",TRUE,"right",0,"3","first_time",1.0375,"3",1,"Hospital",21,"F",1,0.43,0,8,1
"518",0.797979797979798,-1,"1037",TRUE,"right",1,"3","first_time",1.0625,"3",1,"Hospital",21,"F",1,0.43,0,8,0
"519",0.808080808080808,-1,"346",FALSE,"left",0.5,"1","first_time",1.075,"3",1,"Hospital",21,"F",1,0.43,0,9,1
"520",0.818181818181818,-1,"583",TRUE,"right",0,"3","first_time",1.075,"3",1,"Hospital",21,"F",1,0.43,0,9,1
"521",0.828282828282828,-1,"484",FALSE,"left",0.5,"1","first_time",1.0875,"3",1,"Hospital",21,"F",1,0.43,0,9,0
"522",0.838383838383838,-1,"361",FALSE,"left",0.5,"1","first_time",1.1,"3",1,"Hospital",21,"F",1,0.43,0,9,0
"523",0.848484848484849,-1,"389",TRUE,"right",0,"3","first_time",1.1,"3",1,"Hospital",21,"F",1,0.43,0,9,0
"524",0.858585858585859,-1,"497",TRUE,"right",0,"3","first_time",1.1,"3",1,"Hospital",21,"F",1,0.43,0,9,0
"525",0.868686868686869,-1,"454",FALSE,"left",0.5,"1","first_time",1.1125,"3",1,"Hospital",21,"F",1,0.43,0,9,0
"526",0.878787878787879,-1,"402",FALSE,"left",0.5,"1","first_time",1.125,"3",1,"Hospital",21,"F",1,0.43,0,9,0
"527",0.888888888888889,-1,"546",FALSE,"left",0.5,"1","first_time",1.1375,"3",1,"Hospital",21,"F",1,0.43,0,9,0
"528",0.898989898989899,-1,"881",FALSE,"left",0.5,"1","first_time",1.15,"3",1,"Hospital",21,"F",1,0.43,0,9,0
"529",0.909090909090909,-1,"474",FALSE,"left",0.5,"1","first_time",1.1625,"3",1,"Hospital",21,"F",1,0.43,0,10,0
"530",0.919191919191919,-1,"627",FALSE,"left",0.5,"1","first_time",1.175,"3",1,"Hospital",21,"F",1,0.43,0,10,0
"531",0.929292929292929,-1,"496",FALSE,"left",0.5,"1","first_time",1.1875,"3",1,"Hospital",21,"F",1,0.43,0,10,0
"532",0.939393939393939,-1,"307",TRUE,"right",0,"3","first_time",1.1875,"3",1,"Hospital",21,"F",1,0.43,0,10,0
"533",0.94949494949495,-1,"319",FALSE,"left",0.5,"1","first_time",1.2,"3",1,"Hospital",21,"F",1,0.43,0,10,0
"534",0.95959595959596,-1,"539",FALSE,"left",0.5,"1","first_time",1.2125,"3",1,"Hospital",21,"F",1,0.43,0,10,0
"535",0.96969696969697,-1,"465",FALSE,"left",0.5,"1","first_time",1.225,"3",1,"Hospital",21,"F",1,0.43,0,10,0
"536",0.97979797979798,-1,"459",FALSE,"left",0.5,"1","first_time",1.2375,"3",1,"Hospital",21,"F",1,0.43,0,10,0
"537",0.98989898989899,-1,"188",TRUE,"right",1,"3","first_time",1.2625,"3",1,"Hospital",21,"F",1,0.43,0,10,0
"538",1,-1,"384",TRUE,"right",0,"3","first_time",1.2625,"3",1,"Hospital",21,"F",1,0.43,0,10,1
"658",0,-1,"2397",TRUE,"right",1,"4","first_time",0.025,"4",1,"Restaurant",22,"F",1,0.59,0,1,NA
"659",0.0101010101010101,-1,"2018",FALSE,"left",0.5,"2","first_time",0.0375,"4",1,"Restaurant",22,"F",1,0.59,0,1,1
"660",0.0202020202020202,-1,"2050",FALSE,"left",0.5,"2","first_time",0.05,"4",1,"Restaurant",22,"F",1,0.59,0,1,1
"661",0.0303030303030303,-1,"742",FALSE,"left",0.5,"2","first_time",0.0625,"4",1,"Restaurant",22,"F",1,0.59,0,1,1
"662",0.0404040404040404,-1,"1113",TRUE,"right",0,"4","first_time",0.0625,"4",1,"Restaurant",22,"F",1,0.59,0,1,1
"663",0.0505050505050505,-1,"2253",TRUE,"right",1,"4","first_time",0.0875,"4",1,"Restaurant",22,"F",1,0.59,0,1,0
"664",0.0606060606060606,-1,"2344",TRUE,"right",0,"4","first_time",0.0875,"4",1,"Restaurant",22,"F",1,0.59,0,1,1
"665",0.0707070707070707,-1,"755",TRUE,"right",1,"4","first_time",0.1125,"4",1,"Restaurant",22,"F",1,0.59,0,1,0
"666",0.0808080808080808,-1,"623",FALSE,"left",0.5,"2","first_time",0.125,"4",1,"Restaurant",22,"F",1,0.59,0,1,1
"667",0.0909090909090909,-1,"524",FALSE,"left",0.5,"2","first_time",0.1375,"4",1,"Restaurant",22,"F",1,0.59,0,1,1
"668",0.101010101010101,-1,"334",TRUE,"right",0,"4","first_time",0.1375,"4",1,"Restaurant",22,"F",1,0.59,0,2,1
"669",0.111111111111111,-1,"1201",TRUE,"right",0,"4","first_time",0.1375,"4",1,"Restaurant",22,"F",1,0.59,0,2,0
"670",0.121212121212121,-1,"-1",NA,NA,-1,NA,"first_time",0.1375,"4",1,"Restaurant",22,"F",1,0.59,0,2,0
"671",0.131313131313131,-1,"464",TRUE,"right",0,"4","first_time",0.1375,"4",1,"Restaurant",22,"F",1,0.59,0,2,0
"672",0.141414141414141,-1,"771",TRUE,"right",0,"4","first_time",0.1375,"4",1,"Restaurant",22,"F",1,0.59,0,2,0
"673",0.151515151515152,-1,"2261",TRUE,"right",1,"4","first_time",0.1625,"4",1,"Restaurant",22,"F",1,0.59,0,2,0
"674",0.161616161616162,-1,"1792",FALSE,"left",0.5,"2","first_time",0.175,"4",1,"Restaurant",22,"F",1,0.59,0,2,1
"675",0.171717171717172,-1,"629",TRUE,"right",0,"4","first_time",0.175,"4",1,"Restaurant",22,"F",1,0.59,0,2,1
"676",0.181818181818182,-1,"1505",TRUE,"right",0,"4","first_time",0.175,"4",1,"Restaurant",22,"F",1,0.59,0,2,0
"677",0.191919191919192,-1,"645",TRUE,"right",1,"4","first_time",0.2,"4",1,"Restaurant",22,"F",1,0.59,0,2,0
"678",0.202020202020202,-1,"753",FALSE,"left",0.5,"2","first_time",0.2125,"4",1,"Restaurant",22,"F",1,0.59,0,3,1
"679",0.212121212121212,-1,"603",FALSE,"left",0.5,"2","first_time",0.225,"4",1,"Restaurant",22,"F",1,0.59,0,3,1
"680",0.222222222222222,-1,"525",TRUE,"right",1,"4","first_time",0.25,"4",1,"Restaurant",22,"F",1,0.59,0,3,1
"681",0.232323232323232,-1,"1392",TRUE,"right",1,"4","first_time",0.275,"4",1,"Restaurant",22,"F",1,0.59,0,3,1
"682",0.242424242424242,-1,"1747",TRUE,"right",1,"4","first_time",0.3,"4",1,"Restaurant",22,"F",1,0.59,0,3,1
"683",0.252525252525253,-1,"654",TRUE,"right",1,"4","first_time",0.325,"4",1,"Restaurant",22,"F",1,0.59,0,3,1
"684",0.262626262626263,-1,"592",TRUE,"right",0,"4","first_time",0.325,"4",1,"Restaurant",22,"F",1,0.59,0,3,1
"685",0.272727272727273,-1,"567",TRUE,"right",1,"4","first_time",0.35,"4",1,"Restaurant",22,"F",1,0.59,0,3,0
"686",0.282828282828283,-1,"700",TRUE,"right",1,"4","first_time",0.375,"4",1,"Restaurant",22,"F",1,0.59,0,3,1
"687",0.292929292929293,-1,"379",TRUE,"right",0,"4","first_time",0.375,"4",1,"Restaurant",22,"F",1,0.59,0,3,1
"688",0.303030303030303,-1,"303",TRUE,"right",0,"4","first_time",0.375,"4",1,"Restaurant",22,"F",1,0.59,0,4,0
"689",0.313131313131313,-1,"279",FALSE,"left",0.5,"2","first_time",0.3875,"4",1,"Restaurant",22,"F",1,0.59,0,4,0
"690",0.323232323232323,-1,"524",FALSE,"left",0.5,"2","first_time",0.4,"4",1,"Restaurant",22,"F",1,0.59,0,4,0
"691",0.333333333333333,-1,"432",TRUE,"right",0,"4","first_time",0.4,"4",1,"Restaurant",22,"F",1,0.59,0,4,0
"692",0.343434343434343,-1,"292",FALSE,"left",0.5,"2","first_time",0.4125,"4",1,"Restaurant",22,"F",1,0.59,0,4,0
"693",0.353535353535354,-1,"0",TRUE,"right",1,"4","first_time",0.4375,"4",1,"Restaurant",22,"F",1,0.59,0,4,0
"694",0.363636363636364,-1,"482",TRUE,"right",1,"4","first_time",0.4625,"4",1,"Restaurant",22,"F",1,0.59,0,4,1
"695",0.373737373737374,-1,"493",TRUE,"right",0,"4","first_time",0.4625,"4",1,"Restaurant",22,"F",1,0.59,0,4,1
"696",0.383838383838384,-1,"358",FALSE,"left",0.5,"2","first_time",0.475,"4",1,"Restaurant",22,"F",1,0.59,0,4,0
"697",0.393939393939394,-1,"292",FALSE,"left",0.5,"2","first_time",0.4875,"4",1,"Restaurant",22,"F",1,0.59,0,4,0
"698",0.404040404040404,-1,"1",TRUE,"right",1,"4","first_time",0.5125,"4",1,"Restaurant",22,"F",1,0.59,0,5,0
"699",0.414141414141414,-1,"557",TRUE,"right",0,"4","first_time",0.5125,"4",1,"Restaurant",22,"F",1,0.59,0,5,1
"700",0.424242424242424,-1,"296",FALSE,"left",0.5,"2","first_time",0.525,"4",1,"Restaurant",22,"F",1,0.59,0,5,0
"701",0.434343434343434,-1,"389",FALSE,"left",0.5,"2","first_time",0.5375,"4",1,"Restaurant",22,"F",1,0.59,0,5,0
"702",0.444444444444444,-1,"368",FALSE,"left",0.5,"2","first_time",0.55,"4",1,"Restaurant",22,"F",1,0.59,0,5,0
"703",0.454545454545455,-1,"100",TRUE,"right",1,"4","first_time",0.575,"4",1,"Restaurant",22,"F",1,0.59,0,5,0
"704",0.464646464646465,-1,"744",TRUE,"right",1,"4","first_time",0.6,"4",1,"Restaurant",22,"F",1,0.59,0,5,1
"705",0.474747474747475,-1,"764",TRUE,"right",1,"4","first_time",0.625,"4",1,"Restaurant",22,"F",1,0.59,0,5,1
"706",0.484848484848485,-1,"1231",FALSE,"left",0.5,"2","first_time",0.6375,"4",1,"Restaurant",22,"F",1,0.59,0,5,1
"707",0.494949494949495,-1,"299",TRUE,"right",0,"4","first_time",0.6375,"4",1,"Restaurant",22,"F",1,0.59,0,5,1
"708",0.505050505050505,-1,"319",TRUE,"right",1,"4","first_time",0.6625,"4",1,"Restaurant",22,"F",1,0.59,0,6,0
"709",0.515151515151515,-1,"433",TRUE,"right",1,"4","first_time",0.6875,"4",1,"Restaurant",22,"F",1,0.59,0,6,1
"710",0.525252525252525,-1,"594",TRUE,"right",1,"4","first_time",0.7125,"4",1,"Restaurant",22,"F",1,0.59,0,6,1
"711",0.535353535353535,-1,"561",TRUE,"right",0,"4","first_time",0.7125,"4",1,"Restaurant",22,"F",1,0.59,0,6,1
"712",0.545454545454545,-1,"404",TRUE,"right",0,"4","first_time",0.7125,"4",1,"Restaurant",22,"F",1,0.59,0,6,0
"713",0.555555555555556,-1,"237",FALSE,"left",0.5,"2","first_time",0.725,"4",1,"Restaurant",22,"F",1,0.59,0,6,0
"714",0.565656565656566,-1,"318",FALSE,"left",0.5,"2","first_time",0.7375,"4",1,"Restaurant",22,"F",1,0.59,0,6,0
"715",0.575757575757576,-1,"317",FALSE,"left",0.5,"2","first_time",0.75,"4",1,"Restaurant",22,"F",1,0.59,0,6,0
"716",0.585858585858586,-1,"696",FALSE,"left",0.5,"2","first_time",0.7625,"4",1,"Restaurant",22,"F",1,0.59,0,6,0
"717",0.595959595959596,-1,"315",TRUE,"right",1,"4","first_time",0.7875,"4",1,"Restaurant",22,"F",1,0.59,0,6,0
"718",0.606060606060606,-1,"559",TRUE,"right",1,"4","first_time",0.8125,"4",1,"Restaurant",22,"F",1,0.59,0,7,1
"719",0.616161616161616,-1,"523",TRUE,"right",1,"4","first_time",0.8375,"4",1,"Restaurant",22,"F",1,0.59,0,7,1
"720",0.626262626262626,-1,"613",TRUE,"right",0,"4","first_time",0.8375,"4",1,"Restaurant",22,"F",1,0.59,0,7,1
"721",0.636363636363636,-1,"273",FALSE,"left",0.5,"2","first_time",0.85,"4",1,"Restaurant",22,"F",1,0.59,0,7,0
"722",0.646464646464647,-1,"412",FALSE,"left",0.5,"2","first_time",0.8625,"4",1,"Restaurant",22,"F",1,0.59,0,7,0
"723",0.656565656565657,-1,"496",FALSE,"left",0.5,"2","first_time",0.875,"4",1,"Restaurant",22,"F",1,0.59,0,7,0
"724",0.666666666666667,-1,"19",FALSE,"left",0.5,"2","first_time",0.8875,"4",1,"Restaurant",22,"F",1,0.59,0,7,0
"725",0.676767676767677,-1,"0",TRUE,"right",0,"4","first_time",0.8875,"4",1,"Restaurant",22,"F",1,0.59,0,7,0
"726",0.686868686868687,-1,"188",TRUE,"right",0,"4","first_time",0.8875,"4",1,"Restaurant",22,"F",1,0.59,0,7,0
"727",0.696969696969697,-1,"222",TRUE,"right",0,"4","first_time",0.8875,"4",1,"Restaurant",22,"F",1,0.59,0,7,0
"728",0.707070707070707,-1,"-1",NA,NA,-1,NA,"first_time",0.8875,"4",1,"Restaurant",22,"F",1,0.59,0,8,0
"729",0.717171717171717,-1,"863",TRUE,"right",0,"4","first_time",0.8875,"4",1,"Restaurant",22,"F",1,0.59,0,8,0
"730",0.727272727272727,-1,"0",FALSE,"left",0.5,"2","first_time",0.9,"4",1,"Restaurant",22,"F",1,0.59,0,8,0
"731",0.737373737373737,-1,"326",FALSE,"left",0.5,"2","first_time",0.9125,"4",1,"Restaurant",22,"F",1,0.59,0,8,0
"732",0.747474747474748,-1,"-1",NA,NA,-1,NA,"first_time",0.9125,"4",1,"Restaurant",22,"F",1,0.59,0,8,0
"733",0.757575757575758,-1,"404",TRUE,"right",0,"4","first_time",0.9125,"4",1,"Restaurant",22,"F",1,0.59,0,8,0
"734",0.767676767676768,-1,"72",FALSE,"left",0.5,"2","first_time",0.925,"4",1,"Restaurant",22,"F",1,0.59,0,8,0
"735",0.777777777777778,-1,"404",FALSE,"left",0.5,"2","first_time",0.9375,"4",1,"Restaurant",22,"F",1,0.59,0,8,0
"736",0.787878787878788,-1,"15",FALSE,"left",0.5,"2","first_time",0.95,"4",1,"Restaurant",22,"F",1,0.59,0,8,0
"737",0.797979797979798,-1,"-1",NA,NA,-1,NA,"first_time",0.95,"4",1,"Restaurant",22,"F",1,0.59,0,8,0
"738",0.808080808080808,-1,"571",TRUE,"right",0,"4","first_time",0.95,"4",1,"Restaurant",22,"F",1,0.59,0,9,0
"739",0.818181818181818,-1,"440",TRUE,"right",1,"4","first_time",0.975,"4",1,"Restaurant",22,"F",1,0.59,0,9,0
"740",0.828282828282828,-1,"451",TRUE,"right",1,"4","first_time",1,"4",1,"Restaurant",22,"F",1,0.59,0,9,1
"741",0.838383838383838,-1,"318",TRUE,"right",1,"4","first_time",1.025,"4",1,"Restaurant",22,"F",1,0.59,0,9,1
"742",0.848484848484849,-1,"235",TRUE,"right",0,"4","first_time",1.025,"4",1,"Restaurant",22,"F",1,0.59,0,9,1
"743",0.858585858585859,-1,"398",FALSE,"left",0.5,"2","first_time",1.0375,"4",1,"Restaurant",22,"F",1,0.59,0,9,0
"744",0.868686868686869,-1,"369",FALSE,"left",0.5,"2","first_time",1.05,"4",1,"Restaurant",22,"F",1,0.59,0,9,0
"745",0.878787878787879,-1,"338",FALSE,"left",0.5,"2","first_time",1.0625,"4",1,"Restaurant",22,"F",1,0.59,0,9,0
"746",0.888888888888889,-1,"262",FALSE,"left",0.5,"2","first_time",1.075,"4",1,"Restaurant",22,"F",1,0.59,0,9,0
"747",0.898989898989899,-1,"247",FALSE,"left",0.5,"2","first_time",1.0875,"4",1,"Restaurant",22,"F",1,0.59,0,9,0
"748",0.909090909090909,-1,"291",TRUE,"right",0,"4","first_time",1.0875,"4",1,"Restaurant",22,"F",1,0.59,0,10,0
"749",0.919191919191919,-1,"313",TRUE,"right",1,"4","first_time",1.1125,"4",1,"Restaurant",22,"F",1,0.59,0,10,0
"750",0.929292929292929,-1,"565",TRUE,"right",1,"4","first_time",1.1375,"4",1,"Restaurant",22,"F",1,0.59,0,10,1
"751",0.939393939393939,-1,"312",TRUE,"right",1,"4","first_time",1.1625,"4",1,"Restaurant",22,"F",1,0.59,0,10,1
"752",0.94949494949495,-1,"301",TRUE,"right",0,"4","first_time",1.1625,"4",1,"Restaurant",22,"F",1,0.59,0,10,1
"753",0.95959595959596,-1,"593",FALSE,"left",0.5,"2","first_time",1.175,"4",1,"Restaurant",22,"F",1,0.59,0,10,0
"754",0.96969696969697,-1,"543",FALSE,"left",0.5,"2","first_time",1.1875,"4",1,"Restaurant",22,"F",1,0.59,0,10,0
"755",0.97979797979798,-1,"335",TRUE,"right",0,"4","first_time",1.1875,"4",1,"Restaurant",22,"F",1,0.59,0,10,0
"756",0.98989898989899,-1,"330",TRUE,"right",0,"4","first_time",1.1875,"4",1,"Restaurant",22,"F",1,0.59,0,10,0
"757",1,-1,"325",TRUE,"right",1,"4","first_time",1.2125,"4",1,"Restaurant",22,"F",1,0.59,0,10,0
"877",0,-1,"2780",FALSE,"left",0.5,"4","first_time",0.0125,"5",-1,"Restaurant",24,"M",1,0.81,0.6,1,NA
"878",0.0101010101010101,-1,"1668",FALSE,"left",0.5,"4","first_time",0.025,"5",-1,"Restaurant",24,"M",1,0.81,0.6,1,NA
"879",0.0202020202020202,-1,"2389",TRUE,"right",1,"1","first_time",0.05,"5",-1,"Restaurant",24,"M",1,0.81,0.6,1,NA
"880",0.0303030303030303,-1,"465",TRUE,"right",0,"1","first_time",0.05,"5",-1,"Restaurant",24,"M",1,0.81,0.6,1,1
"881",0.0404040404040404,-1,"1445",FALSE,"left",0.5,"4","first_time",0.0625,"5",-1,"Restaurant",24,"M",1,0.81,0.6,1,0
"882",0.0505050505050505,-1,"761",TRUE,"right",1,"1","first_time",0.0875,"5",-1,"Restaurant",24,"M",1,0.81,0.6,1,0
"883",0.0606060606060606,-1,"842",TRUE,"right",0,"1","first_time",0.0875,"5",-1,"Restaurant",24,"M",1,0.81,0.6,1,1
"884",0.0707070707070707,-1,"630",TRUE,"right",1,"1","first_time",0.1125,"5",-1,"Restaurant",24,"M",1,0.81,0.6,1,0
"885",0.0808080808080808,-1,"1319",FALSE,"left",0.5,"4","first_time",0.125,"5",-1,"Restaurant",24,"M",1,0.81,0.6,1,1
"886",0.0909090909090909,-1,"202",FALSE,"left",0.5,"4","first_time",0.1375,"5",-1,"Restaurant",24,"M",1,0.81,0.6,1,1
"887",0.101010101010101,-1,"633",TRUE,"right",0,"1","first_time",0.1375,"5",-1,"Restaurant",24,"M",1,0.81,0.6,2,1
"888",0.111111111111111,-1,"461",TRUE,"right",0,"1","first_time",0.1375,"5",-1,"Restaurant",24,"M",1,0.81,0.6,2,0
"889",0.121212121212121,-1,"154",FALSE,"left",0.5,"4","first_time",0.15,"5",-1,"Restaurant",24,"M",1,0.81,0.6,2,0
"890",0.131313131313131,-1,"188",FALSE,"left",0.5,"4","first_time",0.1625,"5",-1,"Restaurant",24,"M",1,0.81,0.6,2,0
"891",0.141414141414141,-1,"0",FALSE,"left",0.5,"4","first_time",0.175,"5",-1,"Restaurant",24,"M",1,0.81,0.6,2,0
"892",0.151515151515152,-1,"275",FALSE,"left",0.5,"4","first_time",0.1875,"5",-1,"Restaurant",24,"M",1,0.81,0.6,2,0
"893",0.161616161616162,-1,"172",FALSE,"left",0.5,"4","first_time",0.2,"5",-1,"Restaurant",24,"M",1,0.81,0.6,2,0
"894",0.171717171717172,-1,"290",TRUE,"right",1,"1","first_time",0.225,"5",-1,"Restaurant",24,"M",1,0.81,0.6,2,0
"895",0.181818181818182,-1,"255",FALSE,"left",0.5,"4","first_time",0.2375,"5",-1,"Restaurant",24,"M",1,0.81,0.6,2,1
"896",0.191919191919192,-1,"52",FALSE,"left",0.5,"4","first_time",0.25,"5",-1,"Restaurant",24,"M",1,0.81,0.6,2,1
"897",0.202020202020202,-1,"208",FALSE,"left",0.5,"4","first_time",0.2625,"5",-1,"Restaurant",24,"M",1,0.81,0.6,3,1
"898",0.212121212121212,-1,"0",FALSE,"left",0.5,"4","first_time",0.275,"5",-1,"Restaurant",24,"M",1,0.81,0.6,3,1
"899",0.222222222222222,-1,"401",TRUE,"right",0,"1","first_time",0.275,"5",-1,"Restaurant",24,"M",1,0.81,0.6,3,1
"900",0.232323232323232,-1,"78",FALSE,"left",0.5,"4","first_time",0.2875,"5",-1,"Restaurant",24,"M",1,0.81,0.6,3,0
"901",0.242424242424242,-1,"193",FALSE,"left",0.5,"4","first_time",0.3,"5",-1,"Restaurant",24,"M",1,0.81,0.6,3,0
"902",0.252525252525253,-1,"0",FALSE,"left",0.5,"4","first_time",0.3125,"5",-1,"Restaurant",24,"M",1,0.81,0.6,3,0
"903",0.262626262626263,-1,"304",TRUE,"right",0,"1","first_time",0.3125,"5",-1,"Restaurant",24,"M",1,0.81,0.6,3,0
"904",0.272727272727273,-1,"219",TRUE,"right",1,"1","first_time",0.3375,"5",-1,"Restaurant",24,"M",1,0.81,0.6,3,0
"905",0.282828282828283,-1,"303",TRUE,"right",1,"1","first_time",0.3625,"5",-1,"Restaurant",24,"M",1,0.81,0.6,3,1
"906",0.292929292929293,-1,"346",TRUE,"right",1,"1","first_time",0.3875,"5",-1,"Restaurant",24,"M",1,0.81,0.6,3,1
"907",0.303030303030303,-1,"231",TRUE,"right",1,"1","first_time",0.4125,"5",-1,"Restaurant",24,"M",1,0.81,0.6,4,1
"908",0.313131313131313,-1,"146",TRUE,"right",0,"1","first_time",0.4125,"5",-1,"Restaurant",24,"M",1,0.81,0.6,4,1
"909",0.323232323232323,-1,"175",TRUE,"right",0,"1","first_time",0.4125,"5",-1,"Restaurant",24,"M",1,0.81,0.6,4,0
"910",0.333333333333333,-1,"146",TRUE,"right",0,"1","first_time",0.4125,"5",-1,"Restaurant",24,"M",1,0.81,0.6,4,0
"911",0.343434343434343,-1,"152",TRUE,"right",0,"1","first_time",0.4125,"5",-1,"Restaurant",24,"M",1,0.81,0.6,4,0
"912",0.353535353535354,-1,"360",TRUE,"right",1,"1","first_time",0.4375,"5",-1,"Restaurant",24,"M",1,0.81,0.6,4,0
"913",0.363636363636364,-1,"286",TRUE,"right",0,"1","first_time",0.4375,"5",-1,"Restaurant",24,"M",1,0.81,0.6,4,1
"914",0.373737373737374,-1,"434",TRUE,"right",0,"1","first_time",0.4375,"5",-1,"Restaurant",24,"M",1,0.81,0.6,4,0
"915",0.383838383838384,-1,"165",TRUE,"right",1,"1","first_time",0.4625,"5",-1,"Restaurant",24,"M",1,0.81,0.6,4,0
"916",0.393939393939394,-1,"255",TRUE,"right",0,"1","first_time",0.4625,"5",-1,"Restaurant",24,"M",1,0.81,0.6,4,1
"917",0.404040404040404,-1,"153",TRUE,"right",1,"1","first_time",0.4875,"5",-1,"Restaurant",24,"M",1,0.81,0.6,5,0
"918",0.414141414141414,-1,"38",TRUE,"right",1,"1","first_time",0.5125,"5",-1,"Restaurant",24,"M",1,0.81,0.6,5,1
"919",0.424242424242424,-1,"375",TRUE,"right",1,"1","first_time",0.5375,"5",-1,"Restaurant",24,"M",1,0.81,0.6,5,1
"920",0.434343434343434,-1,"0",TRUE,"right",1,"1","first_time",0.5625,"5",-1,"Restaurant",24,"M",1,0.81,0.6,5,1
"921",0.444444444444444,-1,"221",TRUE,"right",0,"1","first_time",0.5625,"5",-1,"Restaurant",24,"M",1,0.81,0.6,5,1
"922",0.454545454545455,-1,"129",TRUE,"right",1,"1","first_time",0.5875,"5",-1,"Restaurant",24,"M",1,0.81,0.6,5,0
"923",0.464646464646465,-1,"1",TRUE,"right",1,"1","first_time",0.6125,"5",-1,"Restaurant",24,"M",1,0.81,0.6,5,1
"924",0.474747474747475,-1,"190",TRUE,"right",1,"1","first_time",0.6375,"5",-1,"Restaurant",24,"M",1,0.81,0.6,5,1
"925",0.484848484848485,-1,"144",TRUE,"right",1,"1","first_time",0.6625,"5",-1,"Restaurant",24,"M",1,0.81,0.6,5,1
"926",0.494949494949495,-1,"213",TRUE,"right",0,"1","first_time",0.6625,"5",-1,"Restaurant",24,"M",1,0.81,0.6,5,1
"927",0.505050505050505,-1,"95",TRUE,"right",0,"1","first_time",0.6625,"5",-1,"Restaurant",24,"M",1,0.81,0.6,6,0
"928",0.515151515151515,-1,"1",TRUE,"right",1,"1","first_time",0.6875,"5",-1,"Restaurant",24,"M",1,0.81,0.6,6,0
"929",0.525252525252525,-1,"112",TRUE,"right",1,"1","first_time",0.7125,"5",-1,"Restaurant",24,"M",1,0.81,0.6,6,1
"930",0.535353535353535,-1,"515",TRUE,"right",1,"1","first_time",0.7375,"5",-1,"Restaurant",24,"M",1,0.81,0.6,6,1
"931",0.545454545454545,-1,"1",TRUE,"right",1,"1","first_time",0.7625,"5",-1,"Restaurant",24,"M",1,0.81,0.6,6,1
"932",0.555555555555556,-1,"0",TRUE,"right",0,"1","first_time",0.7625,"5",-1,"Restaurant",24,"M",1,0.81,0.6,6,1
"933",0.565656565656566,-1,"159",FALSE,"left",0.5,"4","first_time",0.775,"5",-1,"Restaurant",24,"M",1,0.81,0.6,6,0
"934",0.575757575757576,-1,"201",TRUE,"right",0,"1","first_time",0.775,"5",-1,"Restaurant",24,"M",1,0.81,0.6,6,0
"935",0.585858585858586,-1,"72",TRUE,"right",0,"1","first_time",0.775,"5",-1,"Restaurant",24,"M",1,0.81,0.6,6,0
"936",0.595959595959596,-1,"1",TRUE,"right",1,"1","first_time",0.8,"5",-1,"Restaurant",24,"M",1,0.81,0.6,6,0
"937",0.606060606060606,-1,"0",TRUE,"right",1,"1","first_time",0.825,"5",-1,"Restaurant",24,"M",1,0.81,0.6,7,1
"938",0.616161616161616,-1,"222",TRUE,"right",1,"1","first_time",0.85,"5",-1,"Restaurant",24,"M",1,0.81,0.6,7,1
"939",0.626262626262626,-1,"105",TRUE,"right",0,"1","first_time",0.85,"5",-1,"Restaurant",24,"M",1,0.81,0.6,7,1
"940",0.636363636363636,-1,"13",TRUE,"right",1,"1","first_time",0.875,"5",-1,"Restaurant",24,"M",1,0.81,0.6,7,0
"941",0.646464646464647,-1,"177",TRUE,"right",0,"1","first_time",0.875,"5",-1,"Restaurant",24,"M",1,0.81,0.6,7,1
"942",0.656565656565657,-1,"291",TRUE,"right",0,"1","first_time",0.875,"5",-1,"Restaurant",24,"M",1,0.81,0.6,7,0
"943",0.666666666666667,-1,"299",TRUE,"right",1,"1","first_time",0.9,"5",-1,"Restaurant",24,"M",1,0.81,0.6,7,0
"944",0.676767676767677,-1,"660",TRUE,"right",1,"1","first_time",0.925,"5",-1,"Restaurant",24,"M",1,0.81,0.6,7,1
"945",0.686868686868687,-1,"515",TRUE,"right",0,"1","first_time",0.925,"5",-1,"Restaurant",24,"M",1,0.81,0.6,7,1
"946",0.696969696969697,-1,"0",TRUE,"right",0,"1","first_time",0.925,"5",-1,"Restaurant",24,"M",1,0.81,0.6,7,0
"947",0.707070707070707,-1,"136",TRUE,"right",0,"1","first_time",0.925,"5",-1,"Restaurant",24,"M",1,0.81,0.6,8,0
"948",0.717171717171717,-1,"0",TRUE,"right",0,"1","first_time",0.925,"5",-1,"Restaurant",24,"M",1,0.81,0.6,8,0
"949",0.727272727272727,-1,"267",TRUE,"right",0,"1","first_time",0.925,"5",-1,"Restaurant",24,"M",1,0.81,0.6,8,0
"950",0.737373737373737,-1,"270",TRUE,"right",1,"1","first_time",0.95,"5",-1,"Restaurant",24,"M",1,0.81,0.6,8,0
"951",0.747474747474748,-1,"121",TRUE,"right",1,"1","first_time",0.975,"5",-1,"Restaurant",24,"M",1,0.81,0.6,8,1
"952",0.757575757575758,-1,"198",TRUE,"right",0,"1","first_time",0.975,"5",-1,"Restaurant",24,"M",1,0.81,0.6,8,1
"953",0.767676767676768,-1,"126",TRUE,"right",0,"1","first_time",0.975,"5",-1,"Restaurant",24,"M",1,0.81,0.6,8,0
"954",0.777777777777778,-1,"222",TRUE,"right",0,"1","first_time",0.975,"5",-1,"Restaurant",24,"M",1,0.81,0.6,8,0
"955",0.787878787878788,-1,"54",TRUE,"right",0,"1","first_time",0.975,"5",-1,"Restaurant",24,"M",1,0.81,0.6,8,0
"956",0.797979797979798,-1,"309",TRUE,"right",1,"1","first_time",1,"5",-1,"Restaurant",24,"M",1,0.81,0.6,8,0
"957",0.808080808080808,-1,"22",FALSE,"left",0.5,"4","first_time",1.0125,"5",-1,"Restaurant",24,"M",1,0.81,0.6,9,1
"958",0.818181818181818,-1,"0",TRUE,"right",0,"1","first_time",1.0125,"5",-1,"Restaurant",24,"M",1,0.81,0.6,9,1
"959",0.828282828282828,-1,"71",TRUE,"right",1,"1","first_time",1.0375,"5",-1,"Restaurant",24,"M",1,0.81,0.6,9,0
"960",0.838383838383838,-1,"21",TRUE,"right",0,"1","first_time",1.0375,"5",-1,"Restaurant",24,"M",1,0.81,0.6,9,1
"961",0.848484848484849,-1,"596",TRUE,"right",0,"1","first_time",1.0375,"5",-1,"Restaurant",24,"M",1,0.81,0.6,9,0
"962",0.858585858585859,-1,"1",TRUE,"right",1,"1","first_time",1.0625,"5",-1,"Restaurant",24,"M",1,0.81,0.6,9,0
"963",0.868686868686869,-1,"204",TRUE,"right",1,"1","first_time",1.0875,"5",-1,"Restaurant",24,"M",1,0.81,0.6,9,1
"964",0.878787878787879,-1,"429",TRUE,"right",0,"1","first_time",1.0875,"5",-1,"Restaurant",24,"M",1,0.81,0.6,9,1
"965",0.888888888888889,-1,"1",TRUE,"right",1,"1","first_time",1.1125,"5",-1,"Restaurant",24,"M",1,0.81,0.6,9,0
"966",0.898989898989899,-1,"48",TRUE,"right",1,"1","first_time",1.1375,"5",-1,"Restaurant",24,"M",1,0.81,0.6,9,1
"967",0.909090909090909,-1,"114",TRUE,"right",1,"1","first_time",1.1625,"5",-1,"Restaurant",24,"M",1,0.81,0.6,10,1
"968",0.919191919191919,-1,"806",TRUE,"right",0,"1","first_time",1.1625,"5",-1,"Restaurant",24,"M",1,0.81,0.6,10,1
"969",0.929292929292929,-1,"143",TRUE,"right",0,"1","first_time",1.1625,"5",-1,"Restaurant",24,"M",1,0.81,0.6,10,0
"970",0.939393939393939,-1,"0",TRUE,"right",0,"1","first_time",1.1625,"5",-1,"Restaurant",24,"M",1,0.81,0.6,10,0
"971",0.94949494949495,-1,"297",TRUE,"right",1,"1","first_time",1.1875,"5",-1,"Restaurant",24,"M",1,0.81,0.6,10,0
"972",0.95959595959596,-1,"148",TRUE,"right",1,"1","first_time",1.2125,"5",-1,"Restaurant",24,"M",1,0.81,0.6,10,1
"973",0.96969696969697,-1,"582",TRUE,"right",1,"1","first_time",1.2375,"5",-1,"Restaurant",24,"M",1,0.81,0.6,10,1
"974",0.97979797979798,-1,"608",TRUE,"right",1,"1","first_time",1.2625,"5",-1,"Restaurant",24,"M",1,0.81,0.6,10,1
"975",0.98989898989899,-1,"560",TRUE,"right",1,"1","first_time",1.2875,"5",-1,"Restaurant",24,"M",1,0.81,0.6,10,1
"976",1,-1,"548",TRUE,"right",0,"1","first_time",1.2875,"5",-1,"Restaurant",24,"M",1,0.81,0.6,10,1
"1315",0,-1,"-1",NA,NA,-1,NA,"first_time",0,"7",1,"Hospital",19,"F",1,0.25,0.4,1,NA
"1316",0.0101010101010101,-1,"893",TRUE,"left",1,"3","first_time",0.025,"7",1,"Hospital",19,"F",1,0.25,0.4,1,NA
"1317",0.0202020202020202,-1,"2520",TRUE,"left",0,"3","first_time",0.025,"7",1,"Hospital",19,"F",1,0.25,0.4,1,1
"1318",0.0303030303030303,-1,"1408",TRUE,"left",1,"3","first_time",0.05,"7",1,"Hospital",19,"F",1,0.25,0.4,1,0
"1319",0.0404040404040404,-1,"384",FALSE,"right",0.5,"4","first_time",0.0625,"7",1,"Hospital",19,"F",1,0.25,0.4,1,1
"1320",0.0505050505050505,-1,"388",FALSE,"right",0.5,"4","first_time",0.075,"7",1,"Hospital",19,"F",1,0.25,0.4,1,1
"1321",0.0606060606060606,-1,"460",FALSE,"right",0.5,"4","first_time",0.0875,"7",1,"Hospital",19,"F",1,0.25,0.4,1,1
"1322",0.0707070707070707,-1,"338",TRUE,"left",0,"3","first_time",0.0875,"7",1,"Hospital",19,"F",1,0.25,0.4,1,1
"1323",0.0808080808080808,-1,"324",TRUE,"left",1,"3","first_time",0.1125,"7",1,"Hospital",19,"F",1,0.25,0.4,1,0
"1324",0.0909090909090909,-1,"691",TRUE,"left",0,"3","first_time",0.1125,"7",1,"Hospital",19,"F",1,0.25,0.4,1,1
"1325",0.101010101010101,-1,"349",TRUE,"left",1,"3","first_time",0.1375,"7",1,"Hospital",19,"F",1,0.25,0.4,2,0
"1326",0.111111111111111,-1,"505",TRUE,"left",0,"3","first_time",0.1375,"7",1,"Hospital",19,"F",1,0.25,0.4,2,1
"1327",0.121212121212121,-1,"485",TRUE,"left",0,"3","first_time",0.1375,"7",1,"Hospital",19,"F",1,0.25,0.4,2,0
"1328",0.131313131313131,-1,"205",TRUE,"left",1,"3","first_time",0.1625,"7",1,"Hospital",19,"F",1,0.25,0.4,2,0
"1329",0.141414141414141,-1,"376",FALSE,"right",0.5,"4","first_time",0.175,"7",1,"Hospital",19,"F",1,0.25,0.4,2,1
"1330",0.151515151515152,-1,"234",FALSE,"right",0.5,"4","first_time",0.1875,"7",1,"Hospital",19,"F",1,0.25,0.4,2,1
"1331",0.161616161616162,-1,"256",FALSE,"right",0.5,"4","first_time",0.2,"7",1,"Hospital",19,"F",1,0.25,0.4,2,1
"1332",0.171717171717172,-1,"274",FALSE,"right",0.5,"4","first_time",0.2125,"7",1,"Hospital",19,"F",1,0.25,0.4,2,1
"1333",0.181818181818182,-1,"199",FALSE,"right",0.5,"4","first_time",0.225,"7",1,"Hospital",19,"F",1,0.25,0.4,2,1
"1334",0.191919191919192,-1,"299",TRUE,"left",0,"3","first_time",0.225,"7",1,"Hospital",19,"F",1,0.25,0.4,2,1
"1335",0.202020202020202,-1,"924",TRUE,"left",0,"3","first_time",0.225,"7",1,"Hospital",19,"F",1,0.25,0.4,3,0
"1336",0.212121212121212,-1,"215",TRUE,"left",0,"3","first_time",0.225,"7",1,"Hospital",19,"F",1,0.25,0.4,3,0
"1337",0.222222222222222,-1,"226",TRUE,"left",0,"3","first_time",0.225,"7",1,"Hospital",19,"F",1,0.25,0.4,3,0
"1338",0.232323232323232,-1,"252",FALSE,"right",0.5,"4","first_time",0.2375,"7",1,"Hospital",19,"F",1,0.25,0.4,3,0
"1339",0.242424242424242,-1,"230",FALSE,"right",0.5,"4","first_time",0.25,"7",1,"Hospital",19,"F",1,0.25,0.4,3,0
"1340",0.252525252525253,-1,"254",FALSE,"right",0.5,"4","first_time",0.2625,"7",1,"Hospital",19,"F",1,0.25,0.4,3,0
"1341",0.262626262626263,-1,"345",FALSE,"right",0.5,"4","first_time",0.275,"7",1,"Hospital",19,"F",1,0.25,0.4,3,0
"1342",0.272727272727273,-1,"192",FALSE,"right",0.5,"4","first_time",0.2875,"7",1,"Hospital",19,"F",1,0.25,0.4,3,0
"1343",0.282828282828283,-1,"233",FALSE,"right",0.5,"4","first_time",0.3,"7",1,"Hospital",19,"F",1,0.25,0.4,3,0
"1344",0.292929292929293,-1,"327",FALSE,"right",0.5,"4","first_time",0.3125,"7",1,"Hospital",19,"F",1,0.25,0.4,3,0
"1345",0.303030303030303,-1,"402",FALSE,"right",0.5,"4","first_time",0.325,"7",1,"Hospital",19,"F",1,0.25,0.4,4,0
"1346",0.313131313131313,-1,"285",FALSE,"right",0.5,"4","first_time",0.3375,"7",1,"Hospital",19,"F",1,0.25,0.4,4,0
"1347",0.323232323232323,-1,"161",FALSE,"right",0.5,"4","first_time",0.35,"7",1,"Hospital",19,"F",1,0.25,0.4,4,0
"1348",0.333333333333333,-1,"243",FALSE,"right",0.5,"4","first_time",0.3625,"7",1,"Hospital",19,"F",1,0.25,0.4,4,0
"1349",0.343434343434343,-1,"334",FALSE,"right",0.5,"4","first_time",0.375,"7",1,"Hospital",19,"F",1,0.25,0.4,4,0
"1350",0.353535353535354,-1,"264",FALSE,"right",0.5,"4","first_time",0.3875,"7",1,"Hospital",19,"F",1,0.25,0.4,4,0
"1351",0.363636363636364,-1,"377",FALSE,"right",0.5,"4","first_time",0.4,"7",1,"Hospital",19,"F",1,0.25,0.4,4,0
"1352",0.373737373737374,-1,"275",FALSE,"right",0.5,"4","first_time",0.4125,"7",1,"Hospital",19,"F",1,0.25,0.4,4,0
"1353",0.383838383838384,-1,"139",TRUE,"left",1,"3","first_time",0.4375,"7",1,"Hospital",19,"F",1,0.25,0.4,4,0
"1354",0.393939393939394,-1,"201",FALSE,"right",0.5,"4","first_time",0.45,"7",1,"Hospital",19,"F",1,0.25,0.4,4,1
"1355",0.404040404040404,-1,"356",FALSE,"right",0.5,"4","first_time",0.4625,"7",1,"Hospital",19,"F",1,0.25,0.4,5,1
"1356",0.414141414141414,-1,"380",FALSE,"right",0.5,"4","first_time",0.475,"7",1,"Hospital",19,"F",1,0.25,0.4,5,1
"1357",0.424242424242424,-1,"599",FALSE,"right",0.5,"4","first_time",0.4875,"7",1,"Hospital",19,"F",1,0.25,0.4,5,1
"1358",0.434343434343434,-1,"322",FALSE,"right",0.5,"4","first_time",0.5,"7",1,"Hospital",19,"F",1,0.25,0.4,5,1
"1359",0.444444444444444,-1,"244",FALSE,"right",0.5,"4","first_time",0.5125,"7",1,"Hospital",19,"F",1,0.25,0.4,5,1
"1360",0.454545454545455,-1,"247",FALSE,"right",0.5,"4","first_time",0.525,"7",1,"Hospital",19,"F",1,0.25,0.4,5,1
"1361",0.464646464646465,-1,"1",FALSE,"right",0.5,"4","first_time",0.5375,"7",1,"Hospital",19,"F",1,0.25,0.4,5,1
"1362",0.474747474747475,-1,"137",TRUE,"left",1,"3","first_time",0.5625,"7",1,"Hospital",19,"F",1,0.25,0.4,5,1
"1363",0.484848484848485,-1,"167",FALSE,"right",0.5,"4","first_time",0.575,"7",1,"Hospital",19,"F",1,0.25,0.4,5,1
"1364",0.494949494949495,-1,"437",FALSE,"right",0.5,"4","first_time",0.5875,"7",1,"Hospital",19,"F",1,0.25,0.4,5,1
"1365",0.505050505050505,-1,"240",FALSE,"right",0.5,"4","first_time",0.6,"7",1,"Hospital",19,"F",1,0.25,0.4,6,1
"1366",0.515151515151515,-1,"305",FALSE,"right",0.5,"4","first_time",0.6125,"7",1,"Hospital",19,"F",1,0.25,0.4,6,1
"1367",0.525252525252525,-1,"0",TRUE,"left",1,"3","first_time",0.6375,"7",1,"Hospital",19,"F",1,0.25,0.4,6,1
"1368",0.535353535353535,-1,"250",FALSE,"right",0.5,"4","first_time",0.65,"7",1,"Hospital",19,"F",1,0.25,0.4,6,1
"1369",0.545454545454545,-1,"313",FALSE,"right",0.5,"4","first_time",0.6625,"7",1,"Hospital",19,"F",1,0.25,0.4,6,1
"1370",0.555555555555556,-1,"289",FALSE,"right",0.5,"4","first_time",0.675,"7",1,"Hospital",19,"F",1,0.25,0.4,6,1
"1371",0.565656565656566,-1,"434",FALSE,"right",0.5,"4","first_time",0.6875,"7",1,"Hospital",19,"F",1,0.25,0.4,6,1
"1372",0.575757575757576,-1,"220",TRUE,"left",1,"3","first_time",0.7125,"7",1,"Hospital",19,"F",1,0.25,0.4,6,1
"1373",0.585858585858586,-1,"287",FALSE,"right",0.5,"4","first_time",0.725,"7",1,"Hospital",19,"F",1,0.25,0.4,6,1
"1374",0.595959595959596,-1,"193",FALSE,"right",0.5,"4","first_time",0.7375,"7",1,"Hospital",19,"F",1,0.25,0.4,6,1
"1375",0.606060606060606,-1,"180",FALSE,"right",0.5,"4","first_time",0.75,"7",1,"Hospital",19,"F",1,0.25,0.4,7,1
"1376",0.616161616161616,-1,"243",FALSE,"right",0.5,"4","first_time",0.7625,"7",1,"Hospital",19,"F",1,0.25,0.4,7,1
"1377",0.626262626262626,-1,"236",TRUE,"left",1,"3","first_time",0.7875,"7",1,"Hospital",19,"F",1,0.25,0.4,7,1
"1378",0.636363636363636,-1,"268",FALSE,"right",0.5,"4","first_time",0.8,"7",1,"Hospital",19,"F",1,0.25,0.4,7,1
"1379",0.646464646464647,-1,"195",FALSE,"right",0.5,"4","first_time",0.8125,"7",1,"Hospital",19,"F",1,0.25,0.4,7,1
"1380",0.656565656565657,-1,"177",FALSE,"right",0.5,"4","first_time",0.825,"7",1,"Hospital",19,"F",1,0.25,0.4,7,1
"1381",0.666666666666667,-1,"260",FALSE,"right",0.5,"4","first_time",0.8375,"7",1,"Hospital",19,"F",1,0.25,0.4,7,1
"1382",0.676767676767677,-1,"179",FALSE,"right",0.5,"4","first_time",0.85,"7",1,"Hospital",19,"F",1,0.25,0.4,7,1
"1383",0.686868686868687,-1,"173",TRUE,"left",1,"3","first_time",0.875,"7",1,"Hospital",19,"F",1,0.25,0.4,7,1
"1384",0.696969696969697,-1,"40",FALSE,"right",0.5,"4","first_time",0.8875,"7",1,"Hospital",19,"F",1,0.25,0.4,7,1
"1385",0.707070707070707,-1,"170",FALSE,"right",0.5,"4","first_time",0.9,"7",1,"Hospital",19,"F",1,0.25,0.4,8,1
"1386",0.717171717171717,-1,"298",FALSE,"right",0.5,"4","first_time",0.9125,"7",1,"Hospital",19,"F",1,0.25,0.4,8,1
"1387",0.727272727272727,-1,"227",FALSE,"right",0.5,"4","first_time",0.925,"7",1,"Hospital",19,"F",1,0.25,0.4,8,1
"1388",0.737373737373737,-1,"622",TRUE,"left",0,"3","first_time",0.925,"7",1,"Hospital",19,"F",1,0.25,0.4,8,1
"1389",0.747474747474748,-1,"698",FALSE,"right",0.5,"4","first_time",0.9375,"7",1,"Hospital",19,"F",1,0.25,0.4,8,0
"1390",0.757575757575758,-1,"261",FALSE,"right",0.5,"4","first_time",0.95,"7",1,"Hospital",19,"F",1,0.25,0.4,8,0
"1391",0.767676767676768,-1,"181",FALSE,"right",0.5,"4","first_time",0.9625,"7",1,"Hospital",19,"F",1,0.25,0.4,8,0
"1392",0.777777777777778,-1,"192",FALSE,"right",0.5,"4","first_time",0.975,"7",1,"Hospital",19,"F",1,0.25,0.4,8,0
"1393",0.787878787878788,-1,"362",FALSE,"right",0.5,"4","first_time",0.9875,"7",1,"Hospital",19,"F",1,0.25,0.4,8,0
"1394",0.797979797979798,-1,"180",FALSE,"right",0.5,"4","first_time",1,"7",1,"Hospital",19,"F",1,0.25,0.4,8,0
"1395",0.808080808080808,-1,"255",FALSE,"right",0.5,"4","first_time",1.0125,"7",1,"Hospital",19,"F",1,0.25,0.4,9,0
"1396",0.818181818181818,-1,"186",TRUE,"left",0,"3","first_time",1.0125,"7",1,"Hospital",19,"F",1,0.25,0.4,9,0
"1397",0.828282828282828,-1,"459",TRUE,"left",0,"3","first_time",1.0125,"7",1,"Hospital",19,"F",1,0.25,0.4,9,0
"1398",0.838383838383838,-1,"382",FALSE,"right",0.5,"4","first_time",1.025,"7",1,"Hospital",19,"F",1,0.25,0.4,9,0
"1399",0.848484848484849,-1,"274",FALSE,"right",0.5,"4","first_time",1.0375,"7",1,"Hospital",19,"F",1,0.25,0.4,9,0
"1400",0.858585858585859,-1,"128",FALSE,"right",0.5,"4","first_time",1.05,"7",1,"Hospital",19,"F",1,0.25,0.4,9,0
"1401",0.868686868686869,-1,"389",FALSE,"right",0.5,"4","first_time",1.0625,"7",1,"Hospital",19,"F",1,0.25,0.4,9,0
"1402",0.878787878787879,-1,"220",FALSE,"right",0.5,"4","first_time",1.075,"7",1,"Hospital",19,"F",1,0.25,0.4,9,0
"1403",0.888888888888889,-1,"217",TRUE,"left",1,"3","first_time",1.1,"7",1,"Hospital",19,"F",1,0.25,0.4,9,0
"1404",0.898989898989899,-1,"292",FALSE,"right",0.5,"4","first_time",1.1125,"7",1,"Hospital",19,"F",1,0.25,0.4,9,1
"1405",0.909090909090909,-1,"214",FALSE,"right",0.5,"4","first_time",1.125,"7",1,"Hospital",19,"F",1,0.25,0.4,10,1
"1406",0.919191919191919,-1,"336",FALSE,"right",0.5,"4","first_time",1.1375,"7",1,"Hospital",19,"F",1,0.25,0.4,10,1
"1407",0.929292929292929,-1,"217",FALSE,"right",0.5,"4","first_time",1.15,"7",1,"Hospital",19,"F",1,0.25,0.4,10,1
"1408",0.939393939393939,-1,"347",TRUE,"left",0,"3","first_time",1.15,"7",1,"Hospital",19,"F",1,0.25,0.4,10,1
"1409",0.94949494949495,-1,"334",FALSE,"right",0.5,"4","first_time",1.1625,"7",1,"Hospital",19,"F",1,0.25,0.4,10,0
"1410",0.95959595959596,-1,"211",FALSE,"right",0.5,"4","first_time",1.175,"7",1,"Hospital",19,"F",1,0.25,0.4,10,0
"1411",0.96969696969697,-1,"174",FALSE,"right",0.5,"4","first_time",1.1875,"7",1,"Hospital",19,"F",1,0.25,0.4,10,0
"1412",0.97979797979798,-1,"178",FALSE,"right",0.5,"4","first_time",1.2,"7",1,"Hospital",19,"F",1,0.25,0.4,10,0
"1413",0.98989898989899,-1,"541",FALSE,"right",0.5,"4","first_time",1.2125,"7",1,"Hospital",19,"F",1,0.25,0.4,10,0
"1414",1,-1,"188",FALSE,"right",0.5,"4","first_time",1.225,"7",1,"Hospital",19,"F",1,0.25,0.4,10,0
"1534",0,1,"2838",FALSE,"left",0.5,"3","first_time",0.0125,"8",1,"Hospital",21,"F",-1,0.52,0.7,1,NA
"1535",0.0101010101010101,1,"2168",FALSE,"left",0.5,"3","first_time",0.025,"8",1,"Hospital",21,"F",-1,0.52,0.7,1,NA
"1536",0.0202020202020202,1,"2221",FALSE,"left",0.5,"3","first_time",0.0375,"8",1,"Hospital",21,"F",-1,0.52,0.7,1,NA
"1537",0.0303030303030303,1,"1089",TRUE,"right",0,"4","first_time",0.0375,"8",1,"Hospital",21,"F",-1,0.52,0.7,1,NA
"1538",0.0404040404040404,1,"1565",FALSE,"left",0.5,"3","first_time",0.05,"8",1,"Hospital",21,"F",-1,0.52,0.7,1,0
"1539",0.0505050505050505,1,"1159",FALSE,"left",0.5,"3","first_time",0.0625,"8",1,"Hospital",21,"F",-1,0.52,0.7,1,0
"1540",0.0606060606060606,1,"1235",FALSE,"left",0.5,"3","first_time",0.075,"8",1,"Hospital",21,"F",-1,0.52,0.7,1,0
"1541",0.0707070707070707,1,"952",TRUE,"right",1,"4","first_time",0.1,"8",1,"Hospital",21,"F",-1,0.52,0.7,1,0
"1542",0.0808080808080808,1,"1293",TRUE,"right",0,"4","first_time",0.1,"8",1,"Hospital",21,"F",-1,0.52,0.7,1,1
"1543",0.0909090909090909,1,"391",TRUE,"right",1,"4","first_time",0.125,"8",1,"Hospital",21,"F",-1,0.52,0.7,1,0
"1544",0.101010101010101,1,"1400",FALSE,"left",0.5,"3","first_time",0.1375,"8",1,"Hospital",21,"F",-1,0.52,0.7,2,1
"1545",0.111111111111111,1,"638",FALSE,"left",0.5,"3","first_time",0.15,"8",1,"Hospital",21,"F",-1,0.52,0.7,2,1
"1546",0.121212121212121,1,"650",TRUE,"right",1,"4","first_time",0.175,"8",1,"Hospital",21,"F",-1,0.52,0.7,2,1
"1547",0.131313131313131,1,"671",TRUE,"right",1,"4","first_time",0.2,"8",1,"Hospital",21,"F",-1,0.52,0.7,2,1
"1548",0.141414141414141,1,"394",TRUE,"right",0,"4","first_time",0.2,"8",1,"Hospital",21,"F",-1,0.52,0.7,2,1
"1549",0.151515151515152,1,"349",TRUE,"right",0,"4","first_time",0.2,"8",1,"Hospital",21,"F",-1,0.52,0.7,2,0
"1550",0.161616161616162,1,"1977",FALSE,"left",0.5,"3","first_time",0.2125,"8",1,"Hospital",21,"F",-1,0.52,0.7,2,0
"1551",0.171717171717172,1,"397",FALSE,"left",0.5,"3","first_time",0.225,"8",1,"Hospital",21,"F",-1,0.52,0.7,2,0
"1552",0.181818181818182,1,"380",TRUE,"right",1,"4","first_time",0.25,"8",1,"Hospital",21,"F",-1,0.52,0.7,2,0
"1553",0.191919191919192,1,"1310",FALSE,"left",0.5,"3","first_time",0.2625,"8",1,"Hospital",21,"F",-1,0.52,0.7,2,1
"1554",0.202020202020202,1,"553",TRUE,"right",0,"4","first_time",0.2625,"8",1,"Hospital",21,"F",-1,0.52,0.7,3,1
"1555",0.212121212121212,1,"326",FALSE,"left",0.5,"3","first_time",0.275,"8",1,"Hospital",21,"F",-1,0.52,0.7,3,0
"1556",0.222222222222222,1,"359",FALSE,"left",0.5,"3","first_time",0.2875,"8",1,"Hospital",21,"F",-1,0.52,0.7,3,0
"1557",0.232323232323232,1,"429",FALSE,"left",0.5,"3","first_time",0.3,"8",1,"Hospital",21,"F",-1,0.52,0.7,3,0
"1558",0.242424242424242,1,"457",FALSE,"left",0.5,"3","first_time",0.3125,"8",1,"Hospital",21,"F",-1,0.52,0.7,3,0
"1559",0.252525252525253,1,"360",FALSE,"left",0.5,"3","first_time",0.325,"8",1,"Hospital",21,"F",-1,0.52,0.7,3,0
"1560",0.262626262626263,1,"629",TRUE,"right",0,"4","first_time",0.325,"8",1,"Hospital",21,"F",-1,0.52,0.7,3,0
"1561",0.272727272727273,1,"680",TRUE,"right",0,"4","first_time",0.325,"8",1,"Hospital",21,"F",-1,0.52,0.7,3,0
"1562",0.282828282828283,1,"870",FALSE,"left",0.5,"3","first_time",0.3375,"8",1,"Hospital",21,"F",-1,0.52,0.7,3,0
"1563",0.292929292929293,1,"308",FALSE,"left",0.5,"3","first_time",0.35,"8",1,"Hospital",21,"F",-1,0.52,0.7,3,0
"1564",0.303030303030303,1,"612",FALSE,"left",0.5,"3","first_time",0.3625,"8",1,"Hospital",21,"F",-1,0.52,0.7,4,0
"1565",0.313131313131313,1,"672",FALSE,"left",0.5,"3","first_time",0.375,"8",1,"Hospital",21,"F",-1,0.52,0.7,4,0
"1566",0.323232323232323,1,"718",FALSE,"left",0.5,"3","first_time",0.3875,"8",1,"Hospital",21,"F",-1,0.52,0.7,4,0
"1567",0.333333333333333,1,"819",FALSE,"left",0.5,"3","first_time",0.4,"8",1,"Hospital",21,"F",-1,0.52,0.7,4,0
"1568",0.343434343434343,1,"456",TRUE,"right",1,"4","first_time",0.425,"8",1,"Hospital",21,"F",-1,0.52,0.7,4,0
"1569",0.353535353535354,1,"526",TRUE,"right",1,"4","first_time",0.45,"8",1,"Hospital",21,"F",-1,0.52,0.7,4,1
"1570",0.363636363636364,1,"435",TRUE,"right",0,"4","first_time",0.45,"8",1,"Hospital",21,"F",-1,0.52,0.7,4,1
"1571",0.373737373737374,1,"401",TRUE,"right",0,"4","first_time",0.45,"8",1,"Hospital",21,"F",-1,0.52,0.7,4,0
"1572",0.383838383838384,1,"407",TRUE,"right",1,"4","first_time",0.475,"8",1,"Hospital",21,"F",-1,0.52,0.7,4,0
"1573",0.393939393939394,1,"326",TRUE,"right",0,"4","first_time",0.475,"8",1,"Hospital",21,"F",-1,0.52,0.7,4,1
"1574",0.404040404040404,1,"218",TRUE,"right",0,"4","first_time",0.475,"8",1,"Hospital",21,"F",-1,0.52,0.7,5,0
"1575",0.414141414141414,1,"301",TRUE,"right",0,"4","first_time",0.475,"8",1,"Hospital",21,"F",-1,0.52,0.7,5,0
"1576",0.424242424242424,1,"315",TRUE,"right",1,"4","first_time",0.5,"8",1,"Hospital",21,"F",-1,0.52,0.7,5,0
"1577",0.434343434343434,1,"1164",TRUE,"right",0,"4","first_time",0.5,"8",1,"Hospital",21,"F",-1,0.52,0.7,5,1
"1578",0.444444444444444,1,"265",FALSE,"left",0.5,"3","first_time",0.5125,"8",1,"Hospital",21,"F",-1,0.52,0.7,5,0
"1579",0.454545454545455,1,"318",FALSE,"left",0.5,"3","first_time",0.525,"8",1,"Hospital",21,"F",-1,0.52,0.7,5,0
"1580",0.464646464646465,1,"308",FALSE,"left",0.5,"3","first_time",0.5375,"8",1,"Hospital",21,"F",-1,0.52,0.7,5,0
"1581",0.474747474747475,1,"405",TRUE,"right",0,"4","first_time",0.5375,"8",1,"Hospital",21,"F",-1,0.52,0.7,5,0
"1582",0.484848484848485,1,"344",TRUE,"right",1,"4","first_time",0.5625,"8",1,"Hospital",21,"F",-1,0.52,0.7,5,0
"1583",0.494949494949495,1,"518",FALSE,"left",0.5,"3","first_time",0.575,"8",1,"Hospital",21,"F",-1,0.52,0.7,5,1
"1584",0.505050505050505,1,"307",TRUE,"right",1,"4","first_time",0.6,"8",1,"Hospital",21,"F",-1,0.52,0.7,6,1
"1585",0.515151515151515,1,"406",FALSE,"left",0.5,"3","first_time",0.6125,"8",1,"Hospital",21,"F",-1,0.52,0.7,6,1
"1586",0.525252525252525,1,"500",TRUE,"right",0,"4","first_time",0.6125,"8",1,"Hospital",21,"F",-1,0.52,0.7,6,1
"1587",0.535353535353535,1,"321",FALSE,"left",0.5,"3","first_time",0.625,"8",1,"Hospital",21,"F",-1,0.52,0.7,6,0
"1588",0.545454545454545,1,"279",TRUE,"right",1,"4","first_time",0.65,"8",1,"Hospital",21,"F",-1,0.52,0.7,6,0
"1589",0.555555555555556,1,"378",FALSE,"left",0.5,"3","first_time",0.6625,"8",1,"Hospital",21,"F",-1,0.52,0.7,6,1
"1590",0.565656565656566,1,"417",TRUE,"right",1,"4","first_time",0.6875,"8",1,"Hospital",21,"F",-1,0.52,0.7,6,1
"1591",0.575757575757576,1,"443",FALSE,"left",0.5,"3","first_time",0.7,"8",1,"Hospital",21,"F",-1,0.52,0.7,6,1
"1592",0.585858585858586,1,"416",TRUE,"right",1,"4","first_time",0.725,"8",1,"Hospital",21,"F",-1,0.52,0.7,6,1
"1593",0.595959595959596,1,"372",FALSE,"left",0.5,"3","first_time",0.7375,"8",1,"Hospital",21,"F",-1,0.52,0.7,6,1
"1594",0.606060606060606,1,"267",TRUE,"right",1,"4","first_time",0.7625,"8",1,"Hospital",21,"F",-1,0.52,0.7,7,1
"1595",0.616161616161616,1,"357",FALSE,"left",0.5,"3","first_time",0.775,"8",1,"Hospital",21,"F",-1,0.52,0.7,7,1
"1596",0.626262626262626,1,"441",TRUE,"right",1,"4","first_time",0.8,"8",1,"Hospital",21,"F",-1,0.52,0.7,7,1
"1597",0.636363636363636,1,"566",FALSE,"left",0.5,"3","first_time",0.8125,"8",1,"Hospital",21,"F",-1,0.52,0.7,7,1
"1598",0.646464646464647,1,"643",TRUE,"right",1,"4","first_time",0.8375,"8",1,"Hospital",21,"F",-1,0.52,0.7,7,1
"1599",0.656565656565657,1,"437",FALSE,"left",0.5,"3","first_time",0.85,"8",1,"Hospital",21,"F",-1,0.52,0.7,7,1
"1600",0.666666666666667,1,"407",TRUE,"right",0,"4","first_time",0.85,"8",1,"Hospital",21,"F",-1,0.52,0.7,7,1
"1601",0.676767676767677,1,"369",FALSE,"left",0.5,"3","first_time",0.8625,"8",1,"Hospital",21,"F",-1,0.52,0.7,7,0
"1602",0.686868686868687,1,"894",TRUE,"right",0,"4","first_time",0.8625,"8",1,"Hospital",21,"F",-1,0.52,0.7,7,0
"1603",0.696969696969697,1,"389",TRUE,"right",0,"4","first_time",0.8625,"8",1,"Hospital",21,"F",-1,0.52,0.7,7,0
"1604",0.707070707070707,1,"210",FALSE,"left",0.5,"3","first_time",0.875,"8",1,"Hospital",21,"F",-1,0.52,0.7,8,0
"1605",0.717171717171717,1,"868",FALSE,"left",0.5,"3","first_time",0.8875,"8",1,"Hospital",21,"F",-1,0.52,0.7,8,0
"1606",0.727272727272727,1,"456",FALSE,"left",0.5,"3","first_time",0.9,"8",1,"Hospital",21,"F",-1,0.52,0.7,8,0
"1607",0.737373737373737,1,"293",TRUE,"right",1,"4","first_time",0.925,"8",1,"Hospital",21,"F",-1,0.52,0.7,8,0
"1608",0.747474747474748,1,"366",FALSE,"left",0.5,"3","first_time",0.9375,"8",1,"Hospital",21,"F",-1,0.52,0.7,8,1
"1609",0.757575757575758,1,"1242",TRUE,"right",0,"4","first_time",0.9375,"8",1,"Hospital",21,"F",-1,0.52,0.7,8,1
"1610",0.767676767676768,1,"376",FALSE,"left",0.5,"3","first_time",0.95,"8",1,"Hospital",21,"F",-1,0.52,0.7,8,0
"1611",0.777777777777778,1,"281",TRUE,"right",1,"4","first_time",0.975,"8",1,"Hospital",21,"F",-1,0.52,0.7,8,0
"1612",0.787878787878788,1,"353",FALSE,"left",0.5,"3","first_time",0.9875,"8",1,"Hospital",21,"F",-1,0.52,0.7,8,1
"1613",0.797979797979798,1,"479",TRUE,"right",0,"4","first_time",0.9875,"8",1,"Hospital",21,"F",-1,0.52,0.7,8,1
"1614",0.808080808080808,1,"346",TRUE,"right",1,"4","first_time",1.0125,"8",1,"Hospital",21,"F",-1,0.52,0.7,9,0
"1615",0.818181818181818,1,"343",FALSE,"left",0.5,"3","first_time",1.025,"8",1,"Hospital",21,"F",-1,0.52,0.7,9,1
"1616",0.828282828282828,1,"1683",TRUE,"right",1,"4","first_time",1.05,"8",1,"Hospital",21,"F",-1,0.52,0.7,9,1
"1617",0.838383838383838,1,"710",FALSE,"left",0.5,"3","first_time",1.0625,"8",1,"Hospital",21,"F",-1,0.52,0.7,9,1
"1618",0.848484848484849,1,"1417",TRUE,"right",1,"4","first_time",1.0875,"8",1,"Hospital",21,"F",-1,0.52,0.7,9,1
"1619",0.858585858585859,1,"1124",FALSE,"left",0.5,"3","first_time",1.1,"8",1,"Hospital",21,"F",-1,0.52,0.7,9,1
"1620",0.868686868686869,1,"802",TRUE,"right",0,"4","first_time",1.1,"8",1,"Hospital",21,"F",-1,0.52,0.7,9,1
"1621",0.878787878787879,1,"438",TRUE,"right",1,"4","first_time",1.125,"8",1,"Hospital",21,"F",-1,0.52,0.7,9,0
"1622",0.888888888888889,1,"552",TRUE,"right",0,"4","first_time",1.125,"8",1,"Hospital",21,"F",-1,0.52,0.7,9,1
"1623",0.898989898989899,1,"372",TRUE,"right",1,"4","first_time",1.15,"8",1,"Hospital",21,"F",-1,0.52,0.7,9,0
"1624",0.909090909090909,1,"369",FALSE,"left",0.5,"3","first_time",1.1625,"8",1,"Hospital",21,"F",-1,0.52,0.7,10,1
"1625",0.919191919191919,1,"319",TRUE,"right",1,"4","first_time",1.1875,"8",1,"Hospital",21,"F",-1,0.52,0.7,10,1
"1626",0.929292929292929,1,"309",FALSE,"left",0.5,"3","first_time",1.2,"8",1,"Hospital",21,"F",-1,0.52,0.7,10,1
"1627",0.939393939393939,1,"298",TRUE,"right",0,"4","first_time",1.2,"8",1,"Hospital",21,"F",-1,0.52,0.7,10,1
"1628",0.94949494949495,1,"317",TRUE,"right",0,"4","first_time",1.2,"8",1,"Hospital",21,"F",-1,0.52,0.7,10,0
"1629",0.95959595959596,1,"249",FALSE,"left",0.5,"3","first_time",1.2125,"8",1,"Hospital",21,"F",-1,0.52,0.7,10,0
"1630",0.96969696969697,1,"532",FALSE,"left",0.5,"3","first_time",1.225,"8",1,"Hospital",21,"F",-1,0.52,0.7,10,0
"1631",0.97979797979798,1,"505",TRUE,"right",0,"4","first_time",1.225,"8",1,"Hospital",21,"F",-1,0.52,0.7,10,0
"1632",0.98989898989899,1,"278",TRUE,"right",0,"4","first_time",1.225,"8",1,"Hospital",21,"F",-1,0.52,0.7,10,0
"1633",1,1,"385",TRUE,"right",0,"4","first_time",1.225,"8",1,"Hospital",21,"F",-1,0.52,0.7,10,0
"1753",0,-1,"1362",TRUE,"right",1,"1","first_time",0.025,"9",-1,"Hospital",NA,"M",-1,0.41,0,1,NA
"1754",0.0101010101010101,-1,"1031",FALSE,"left",0.5,"4","first_time",0.0375,"9",-1,"Hospital",NA,"M",-1,0.41,0,1,1
"1755",0.0202020202020202,-1,"2331",FALSE,"left",0.5,"4","first_time",0.05,"9",-1,"Hospital",NA,"M",-1,0.41,0,1,1
"1756",0.0303030303030303,-1,"-1",NA,NA,-1,NA,"first_time",0.05,"9",-1,"Hospital",NA,"M",-1,0.41,0,1,1
"1757",0.0404040404040404,-1,"507",FALSE,"left",0.5,"4","first_time",0.0625,"9",-1,"Hospital",NA,"M",-1,0.41,0,1,1
"1758",0.0505050505050505,-1,"1893",TRUE,"right",0,"1","first_time",0.0625,"9",-1,"Hospital",NA,"M",-1,0.41,0,1,1
"1759",0.0606060606060606,-1,"894",FALSE,"left",0.5,"4","first_time",0.075,"9",-1,"Hospital",NA,"M",-1,0.41,0,1,0
"1760",0.0707070707070707,-1,"682",FALSE,"left",0.5,"4","first_time",0.0875,"9",-1,"Hospital",NA,"M",-1,0.41,0,1,0
"1761",0.0808080808080808,-1,"843",TRUE,"right",1,"1","first_time",0.1125,"9",-1,"Hospital",NA,"M",-1,0.41,0,1,0
"1762",0.0909090909090909,-1,"1168",TRUE,"right",0,"1","first_time",0.1125,"9",-1,"Hospital",NA,"M",-1,0.41,0,1,1
"1763",0.101010101010101,-1,"557",FALSE,"left",0.5,"4","first_time",0.125,"9",-1,"Hospital",NA,"M",-1,0.41,0,2,0
"1764",0.111111111111111,-1,"387",FALSE,"left",0.5,"4","first_time",0.1375,"9",-1,"Hospital",NA,"M",-1,0.41,0,2,0
"1765",0.121212121212121,-1,"681",TRUE,"right",0,"1","first_time",0.1375,"9",-1,"Hospital",NA,"M",-1,0.41,0,2,0
"1766",0.131313131313131,-1,"636",FALSE,"left",0.5,"4","first_time",0.15,"9",-1,"Hospital",NA,"M",-1,0.41,0,2,0
"1767",0.141414141414141,-1,"554",TRUE,"right",0,"1","first_time",0.15,"9",-1,"Hospital",NA,"M",-1,0.41,0,2,0
"1768",0.151515151515152,-1,"550",TRUE,"right",1,"1","first_time",0.175,"9",-1,"Hospital",NA,"M",-1,0.41,0,2,0
"1769",0.161616161616162,-1,"1083",FALSE,"left",0.5,"4","first_time",0.1875,"9",-1,"Hospital",NA,"M",-1,0.41,0,2,1
"1770",0.171717171717172,-1,"840",FALSE,"left",0.5,"4","first_time",0.2,"9",-1,"Hospital",NA,"M",-1,0.41,0,2,1
"1771",0.181818181818182,-1,"509",FALSE,"left",0.5,"4","first_time",0.2125,"9",-1,"Hospital",NA,"M",-1,0.41,0,2,1
"1772",0.191919191919192,-1,"667",TRUE,"right",1,"1","first_time",0.2375,"9",-1,"Hospital",NA,"M",-1,0.41,0,2,1
"1773",0.202020202020202,-1,"1193",FALSE,"left",0.5,"4","first_time",0.25,"9",-1,"Hospital",NA,"M",-1,0.41,0,3,1
"1774",0.212121212121212,-1,"478",FALSE,"left",0.5,"4","first_time",0.2625,"9",-1,"Hospital",NA,"M",-1,0.41,0,3,1
"1775",0.222222222222222,-1,"540",TRUE,"right",0,"1","first_time",0.2625,"9",-1,"Hospital",NA,"M",-1,0.41,0,3,1
"1776",0.232323232323232,-1,"711",TRUE,"right",0,"1","first_time",0.2625,"9",-1,"Hospital",NA,"M",-1,0.41,0,3,0
"1777",0.242424242424242,-1,"590",FALSE,"left",0.5,"4","first_time",0.275,"9",-1,"Hospital",NA,"M",-1,0.41,0,3,0
"1778",0.252525252525253,-1,"667",FALSE,"left",0.5,"4","first_time",0.2875,"9",-1,"Hospital",NA,"M",-1,0.41,0,3,0
"1779",0.262626262626263,-1,"1013",FALSE,"left",0.5,"4","first_time",0.3,"9",-1,"Hospital",NA,"M",-1,0.41,0,3,0
"1780",0.272727272727273,-1,"512",TRUE,"right",1,"1","first_time",0.325,"9",-1,"Hospital",NA,"M",-1,0.41,0,3,0
"1781",0.282828282828283,-1,"482",FALSE,"left",0.5,"4","first_time",0.3375,"9",-1,"Hospital",NA,"M",-1,0.41,0,3,1
"1782",0.292929292929293,-1,"300",FALSE,"left",0.5,"4","first_time",0.35,"9",-1,"Hospital",NA,"M",-1,0.41,0,3,1
"1783",0.303030303030303,-1,"340",FALSE,"left",0.5,"4","first_time",0.3625,"9",-1,"Hospital",NA,"M",-1,0.41,0,4,1
"1784",0.313131313131313,-1,"339",TRUE,"right",0,"1","first_time",0.3625,"9",-1,"Hospital",NA,"M",-1,0.41,0,4,1
"1785",0.323232323232323,-1,"529",TRUE,"right",0,"1","first_time",0.3625,"9",-1,"Hospital",NA,"M",-1,0.41,0,4,0
"1786",0.333333333333333,-1,"350",TRUE,"right",1,"1","first_time",0.3875,"9",-1,"Hospital",NA,"M",-1,0.41,0,4,0
"1787",0.343434343434343,-1,"1563",TRUE,"right",1,"1","first_time",0.4125,"9",-1,"Hospital",NA,"M",-1,0.41,0,4,1
"1788",0.353535353535354,-1,"576",TRUE,"right",0,"1","first_time",0.4125,"9",-1,"Hospital",NA,"M",-1,0.41,0,4,1
"1789",0.363636363636364,-1,"1237",TRUE,"right",0,"1","first_time",0.4125,"9",-1,"Hospital",NA,"M",-1,0.41,0,4,0
"1790",0.373737373737374,-1,"343",TRUE,"right",0,"1","first_time",0.4125,"9",-1,"Hospital",NA,"M",-1,0.41,0,4,0
"1791",0.383838383838384,-1,"637",TRUE,"right",0,"1","first_time",0.4125,"9",-1,"Hospital",NA,"M",-1,0.41,0,4,0
"1792",0.393939393939394,-1,"504",TRUE,"right",0,"1","first_time",0.4125,"9",-1,"Hospital",NA,"M",-1,0.41,0,4,0
"1793",0.404040404040404,-1,"469",FALSE,"left",0.5,"4","first_time",0.425,"9",-1,"Hospital",NA,"M",-1,0.41,0,5,0
"1794",0.414141414141414,-1,"258",FALSE,"left",0.5,"4","first_time",0.4375,"9",-1,"Hospital",NA,"M",-1,0.41,0,5,0
"1795",0.424242424242424,-1,"1064",TRUE,"right",1,"1","first_time",0.4625,"9",-1,"Hospital",NA,"M",-1,0.41,0,5,0
"1796",0.434343434343434,-1,"641",FALSE,"left",0.5,"4","first_time",0.475,"9",-1,"Hospital",NA,"M",-1,0.41,0,5,1
"1797",0.444444444444444,-1,"298",FALSE,"left",0.5,"4","first_time",0.4875,"9",-1,"Hospital",NA,"M",-1,0.41,0,5,1
"1798",0.454545454545455,-1,"820",FALSE,"left",0.5,"4","first_time",0.5,"9",-1,"Hospital",NA,"M",-1,0.41,0,5,1
"1799",0.464646464646465,-1,"429",TRUE,"right",0,"1","first_time",0.5,"9",-1,"Hospital",NA,"M",-1,0.41,0,5,1
"1800",0.474747474747475,-1,"357",FALSE,"left",0.5,"4","first_time",0.5125,"9",-1,"Hospital",NA,"M",-1,0.41,0,5,0
"1801",0.484848484848485,-1,"377",TRUE,"right",1,"1","first_time",0.5375,"9",-1,"Hospital",NA,"M",-1,0.41,0,5,0
"1802",0.494949494949495,-1,"244",FALSE,"left",0.5,"4","first_time",0.55,"9",-1,"Hospital",NA,"M",-1,0.41,0,5,1
"1803",0.505050505050505,-1,"360",FALSE,"left",0.5,"4","first_time",0.5625,"9",-1,"Hospital",NA,"M",-1,0.41,0,6,1
"1804",0.515151515151515,-1,"434",TRUE,"right",0,"1","first_time",0.5625,"9",-1,"Hospital",NA,"M",-1,0.41,0,6,1
"1805",0.525252525252525,-1,"229",FALSE,"left",0.5,"4","first_time",0.575,"9",-1,"Hospital",NA,"M",-1,0.41,0,6,0
"1806",0.535353535353535,-1,"704",TRUE,"right",0,"1","first_time",0.575,"9",-1,"Hospital",NA,"M",-1,0.41,0,6,0
"1807",0.545454545454545,-1,"413",TRUE,"right",1,"1","first_time",0.6,"9",-1,"Hospital",NA,"M",-1,0.41,0,6,0
"1808",0.555555555555556,-1,"451",FALSE,"left",0.5,"4","first_time",0.6125,"9",-1,"Hospital",NA,"M",-1,0.41,0,6,1
"1809",0.565656565656566,-1,"490",FALSE,"left",0.5,"4","first_time",0.625,"9",-1,"Hospital",NA,"M",-1,0.41,0,6,1
"1810",0.575757575757576,-1,"799",TRUE,"right",1,"1","first_time",0.65,"9",-1,"Hospital",NA,"M",-1,0.41,0,6,1
"1811",0.585858585858586,-1,"476",FALSE,"left",0.5,"4","first_time",0.6625,"9",-1,"Hospital",NA,"M",-1,0.41,0,6,1
"1812",0.595959595959596,-1,"409",FALSE,"left",0.5,"4","first_time",0.675,"9",-1,"Hospital",NA,"M",-1,0.41,0,6,1
"1813",0.606060606060606,-1,"310",TRUE,"right",0,"1","first_time",0.675,"9",-1,"Hospital",NA,"M",-1,0.41,0,7,1
"1814",0.616161616161616,-1,"522",TRUE,"right",0,"1","first_time",0.675,"9",-1,"Hospital",NA,"M",-1,0.41,0,7,0
"1815",0.626262626262626,-1,"489",FALSE,"left",0.5,"4","first_time",0.6875,"9",-1,"Hospital",NA,"M",-1,0.41,0,7,0
"1816",0.636363636363636,-1,"3837",FALSE,"left",0.5,"4","first_time",0.7,"9",-1,"Hospital",NA,"M",-1,0.41,0,7,0
"1817",0.646464646464647,-1,"1293",FALSE,"left",0.5,"4","first_time",0.7125,"9",-1,"Hospital",NA,"M",-1,0.41,0,7,0
"1818",0.656565656565657,-1,"214",FALSE,"left",0.5,"4","first_time",0.725,"9",-1,"Hospital",NA,"M",-1,0.41,0,7,0
"1819",0.666666666666667,-1,"590",TRUE,"right",1,"1","first_time",0.75,"9",-1,"Hospital",NA,"M",-1,0.41,0,7,0
"1820",0.676767676767677,-1,"1104",TRUE,"right",1,"1","first_time",0.775,"9",-1,"Hospital",NA,"M",-1,0.41,0,7,1
"1821",0.686868686868687,-1,"361",FALSE,"left",0.5,"4","first_time",0.7875,"9",-1,"Hospital",NA,"M",-1,0.41,0,7,1
"1822",0.696969696969697,-1,"411",FALSE,"left",0.5,"4","first_time",0.8,"9",-1,"Hospital",NA,"M",-1,0.41,0,7,1
"1823",0.707070707070707,-1,"209",TRUE,"right",0,"1","first_time",0.8,"9",-1,"Hospital",NA,"M",-1,0.41,0,8,1
"1824",0.717171717171717,-1,"321",TRUE,"right",1,"1","first_time",0.825,"9",-1,"Hospital",NA,"M",-1,0.41,0,8,0
"1825",0.727272727272727,-1,"367",TRUE,"right",0,"1","first_time",0.825,"9",-1,"Hospital",NA,"M",-1,0.41,0,8,1
"1826",0.737373737373737,-1,"252",FALSE,"left",0.5,"4","first_time",0.8375,"9",-1,"Hospital",NA,"M",-1,0.41,0,8,0
"1827",0.747474747474748,-1,"785",FALSE,"left",0.5,"4","first_time",0.85,"9",-1,"Hospital",NA,"M",-1,0.41,0,8,0
"1828",0.757575757575758,-1,"319",TRUE,"right",1,"1","first_time",0.875,"9",-1,"Hospital",NA,"M",-1,0.41,0,8,0
"1829",0.767676767676768,-1,"349",FALSE,"left",0.5,"4","first_time",0.8875,"9",-1,"Hospital",NA,"M",-1,0.41,0,8,1
"1830",0.777777777777778,-1,"368",FALSE,"left",0.5,"4","first_time",0.9,"9",-1,"Hospital",NA,"M",-1,0.41,0,8,1
"1831",0.787878787878788,-1,"356",FALSE,"left",0.5,"4","first_time",0.9125,"9",-1,"Hospital",NA,"M",-1,0.41,0,8,1
"1832",0.797979797979798,-1,"288",TRUE,"right",0,"1","first_time",0.9125,"9",-1,"Hospital",NA,"M",-1,0.41,0,8,1
"1833",0.808080808080808,-1,"191",TRUE,"right",1,"1","first_time",0.9375,"9",-1,"Hospital",NA,"M",-1,0.41,0,9,0
"1834",0.818181818181818,-1,"451",FALSE,"left",0.5,"4","first_time",0.95,"9",-1,"Hospital",NA,"M",-1,0.41,0,9,1
"1835",0.828282828282828,-1,"333",FALSE,"left",0.5,"4","first_time",0.9625,"9",-1,"Hospital",NA,"M",-1,0.41,0,9,1
"1836",0.838383838383838,-1,"614",FALSE,"left",0.5,"4","first_time",0.975,"9",-1,"Hospital",NA,"M",-1,0.41,0,9,1
"1837",0.848484848484849,-1,"392",TRUE,"right",1,"1","first_time",1,"9",-1,"Hospital",NA,"M",-1,0.41,0,9,1
"1838",0.858585858585859,-1,"261",TRUE,"right",1,"1","first_time",1.025,"9",-1,"Hospital",NA,"M",-1,0.41,0,9,1
"1839",0.868686868686869,-1,"306",FALSE,"left",0.5,"4","first_time",1.0375,"9",-1,"Hospital",NA,"M",-1,0.41,0,9,1
"1840",0.878787878787879,-1,"277",FALSE,"left",0.5,"4","first_time",1.05,"9",-1,"Hospital",NA,"M",-1,0.41,0,9,1
"1841",0.888888888888889,-1,"641",FALSE,"left",0.5,"4","first_time",1.0625,"9",-1,"Hospital",NA,"M",-1,0.41,0,9,1
"1842",0.898989898989899,-1,"272",FALSE,"left",0.5,"4","first_time",1.075,"9",-1,"Hospital",NA,"M",-1,0.41,0,9,1
"1843",0.909090909090909,-1,"331",FALSE,"left",0.5,"4","first_time",1.0875,"9",-1,"Hospital",NA,"M",-1,0.41,0,10,1
"1844",0.919191919191919,-1,"214",FALSE,"left",0.5,"4","first_time",1.1,"9",-1,"Hospital",NA,"M",-1,0.41,0,10,1
"1845",0.929292929292929,-1,"239",TRUE,"right",1,"1","first_time",1.125,"9",-1,"Hospital",NA,"M",-1,0.41,0,10,1
"1846",0.939393939393939,-1,"257",TRUE,"right",1,"1","first_time",1.15,"9",-1,"Hospital",NA,"M",-1,0.41,0,10,1
"1847",0.94949494949495,-1,"406",FALSE,"left",0.5,"4","first_time",1.1625,"9",-1,"Hospital",NA,"M",-1,0.41,0,10,1
"1848",0.95959595959596,-1,"291",FALSE,"left",0.5,"4","first_time",1.175,"9",-1,"Hospital",NA,"M",-1,0.41,0,10,1
"1849",0.96969696969697,-1,"361",FALSE,"left",0.5,"4","first_time",1.1875,"9",-1,"Hospital",NA,"M",-1,0.41,0,10,1
"1850",0.97979797979798,-1,"439",FALSE,"left",0.5,"4","first_time",1.2,"9",-1,"Hospital",NA,"M",-1,0.41,0,10,1
"1851",0.98989898989899,-1,"465",FALSE,"left",0.5,"4","first_time",1.2125,"9",-1,"Hospital",NA,"M",-1,0.41,0,10,1
"1852",1,-1,"359",FALSE,"left",0.5,"4","first_time",1.225,"9",-1,"Hospital",NA,"M",-1,0.41,0,10,1
"1972",0,-1,"3108",TRUE,"left",1,"3","first_time",0.025,"10",-1,"Hospital",20,"F",-1,0.3,0.55,1,NA
"1973",0.0101010101010101,-1,"1479",FALSE,"right",0.5,"1","first_time",0.0375,"10",-1,"Hospital",20,"F",-1,0.3,0.55,1,1
"1974",0.0202020202020202,-1,"1185",FALSE,"right",0.5,"1","first_time",0.05,"10",-1,"Hospital",20,"F",-1,0.3,0.55,1,1
"1975",0.0303030303030303,-1,"627",TRUE,"left",0,"3","first_time",0.05,"10",-1,"Hospital",20,"F",-1,0.3,0.55,1,1
"1976",0.0404040404040404,-1,"1044",TRUE,"left",1,"3","first_time",0.075,"10",-1,"Hospital",20,"F",-1,0.3,0.55,1,0
"1977",0.0505050505050505,-1,"786",FALSE,"right",0.5,"1","first_time",0.0875,"10",-1,"Hospital",20,"F",-1,0.3,0.55,1,1
"1978",0.0606060606060606,-1,"551",FALSE,"right",0.5,"1","first_time",0.1,"10",-1,"Hospital",20,"F",-1,0.3,0.55,1,1
"1979",0.0707070707070707,-1,"470",TRUE,"left",0,"3","first_time",0.1,"10",-1,"Hospital",20,"F",-1,0.3,0.55,1,1
"1980",0.0808080808080808,-1,"261",FALSE,"right",0.5,"1","first_time",0.1125,"10",-1,"Hospital",20,"F",-1,0.3,0.55,1,0
"1981",0.0909090909090909,-1,"348",FALSE,"right",0.5,"1","first_time",0.125,"10",-1,"Hospital",20,"F",-1,0.3,0.55,1,0
"1982",0.101010101010101,-1,"370",FALSE,"right",0.5,"1","first_time",0.1375,"10",-1,"Hospital",20,"F",-1,0.3,0.55,2,0
"1983",0.111111111111111,-1,"336",TRUE,"left",0,"3","first_time",0.1375,"10",-1,"Hospital",20,"F",-1,0.3,0.55,2,0
"1984",0.121212121212121,-1,"958",TRUE,"left",0,"3","first_time",0.1375,"10",-1,"Hospital",20,"F",-1,0.3,0.55,2,0
"1985",0.131313131313131,-1,"307",FALSE,"right",0.5,"1","first_time",0.15,"10",-1,"Hospital",20,"F",-1,0.3,0.55,2,0
"1986",0.141414141414141,-1,"439",TRUE,"left",1,"3","first_time",0.175,"10",-1,"Hospital",20,"F",-1,0.3,0.55,2,0
"1987",0.151515151515152,-1,"445",FALSE,"right",0.5,"1","first_time",0.1875,"10",-1,"Hospital",20,"F",-1,0.3,0.55,2,1
"1988",0.161616161616162,-1,"556",FALSE,"right",0.5,"1","first_time",0.2,"10",-1,"Hospital",20,"F",-1,0.3,0.55,2,1
"1989",0.171717171717172,-1,"1025",FALSE,"right",0.5,"1","first_time",0.2125,"10",-1,"Hospital",20,"F",-1,0.3,0.55,2,1
"1990",0.181818181818182,-1,"265",FALSE,"right",0.5,"1","first_time",0.225,"10",-1,"Hospital",20,"F",-1,0.3,0.55,2,1
"1991",0.191919191919192,-1,"444",TRUE,"left",0,"3","first_time",0.225,"10",-1,"Hospital",20,"F",-1,0.3,0.55,2,1
"1992",0.202020202020202,-1,"360",TRUE,"left",1,"3","first_time",0.25,"10",-1,"Hospital",20,"F",-1,0.3,0.55,3,0
"1993",0.212121212121212,-1,"1608",TRUE,"left",0,"3","first_time",0.25,"10",-1,"Hospital",20,"F",-1,0.3,0.55,3,1
"1994",0.222222222222222,-1,"310",TRUE,"left",1,"3","first_time",0.275,"10",-1,"Hospital",20,"F",-1,0.3,0.55,3,0
"1995",0.232323232323232,-1,"794",TRUE,"left",1,"3","first_time",0.3,"10",-1,"Hospital",20,"F",-1,0.3,0.55,3,1
"1996",0.242424242424242,-1,"886",FALSE,"right",0.5,"1","first_time",0.3125,"10",-1,"Hospital",20,"F",-1,0.3,0.55,3,1
"1997",0.252525252525253,-1,"309",FALSE,"right",0.5,"1","first_time",0.325,"10",-1,"Hospital",20,"F",-1,0.3,0.55,3,1
"1998",0.262626262626263,-1,"633",TRUE,"left",1,"3","first_time",0.35,"10",-1,"Hospital",20,"F",-1,0.3,0.55,3,1
"1999",0.272727272727273,-1,"362",FALSE,"right",0.5,"1","first_time",0.3625,"10",-1,"Hospital",20,"F",-1,0.3,0.55,3,1
"2000",0.282828282828283,-1,"393",TRUE,"left",0,"3","first_time",0.3625,"10",-1,"Hospital",20,"F",-1,0.3,0.55,3,1
"2001",0.292929292929293,-1,"327",TRUE,"left",0,"3","first_time",0.3625,"10",-1,"Hospital",20,"F",-1,0.3,0.55,3,0
"2002",0.303030303030303,-1,"250",TRUE,"left",0,"3","first_time",0.3625,"10",-1,"Hospital",20,"F",-1,0.3,0.55,4,0
"2003",0.313131313131313,-1,"382",TRUE,"left",0,"3","first_time",0.3625,"10",-1,"Hospital",20,"F",-1,0.3,0.55,4,0
"2004",0.323232323232323,-1,"329",TRUE,"left",0,"3","first_time",0.3625,"10",-1,"Hospital",20,"F",-1,0.3,0.55,4,0
"2005",0.333333333333333,-1,"503",FALSE,"right",0.5,"1","first_time",0.375,"10",-1,"Hospital",20,"F",-1,0.3,0.55,4,0
"2006",0.343434343434343,-1,"529",FALSE,"right",0.5,"1","first_time",0.3875,"10",-1,"Hospital",20,"F",-1,0.3,0.55,4,0
"2007",0.353535353535354,-1,"438",FALSE,"right",0.5,"1","first_time",0.4,"10",-1,"Hospital",20,"F",-1,0.3,0.55,4,0
"2008",0.363636363636364,-1,"352",TRUE,"left",0,"3","first_time",0.4,"10",-1,"Hospital",20,"F",-1,0.3,0.55,4,0
"2009",0.373737373737374,-1,"342",FALSE,"right",0.5,"1","first_time",0.4125,"10",-1,"Hospital",20,"F",-1,0.3,0.55,4,0
"2010",0.383838383838384,-1,"267",FALSE,"right",0.5,"1","first_time",0.425,"10",-1,"Hospital",20,"F",-1,0.3,0.55,4,0
"2011",0.393939393939394,-1,"402",FALSE,"right",0.5,"1","first_time",0.4375,"10",-1,"Hospital",20,"F",-1,0.3,0.55,4,0
"2012",0.404040404040404,-1,"916",FALSE,"right",0.5,"1","first_time",0.45,"10",-1,"Hospital",20,"F",-1,0.3,0.55,5,0
"2013",0.414141414141414,-1,"324",FALSE,"right",0.5,"1","first_time",0.4625,"10",-1,"Hospital",20,"F",-1,0.3,0.55,5,0
"2014",0.424242424242424,-1,"235",FALSE,"right",0.5,"1","first_time",0.475,"10",-1,"Hospital",20,"F",-1,0.3,0.55,5,0
"2015",0.434343434343434,-1,"314",FALSE,"right",0.5,"1","first_time",0.4875,"10",-1,"Hospital",20,"F",-1,0.3,0.55,5,0
"2016",0.444444444444444,-1,"233",FALSE,"right",0.5,"1","first_time",0.5,"10",-1,"Hospital",20,"F",-1,0.3,0.55,5,0
"2017",0.454545454545455,-1,"464",TRUE,"left",0,"3","first_time",0.5,"10",-1,"Hospital",20,"F",-1,0.3,0.55,5,0
"2018",0.464646464646465,-1,"437",TRUE,"left",0,"3","first_time",0.5,"10",-1,"Hospital",20,"F",-1,0.3,0.55,5,0
"2019",0.474747474747475,-1,"227",FALSE,"right",0.5,"1","first_time",0.5125,"10",-1,"Hospital",20,"F",-1,0.3,0.55,5,0
"2020",0.484848484848485,-1,"303",FALSE,"right",0.5,"1","first_time",0.525,"10",-1,"Hospital",20,"F",-1,0.3,0.55,5,0
"2021",0.494949494949495,-1,"378",FALSE,"right",0.5,"1","first_time",0.5375,"10",-1,"Hospital",20,"F",-1,0.3,0.55,5,0
"2022",0.505050505050505,-1,"262",FALSE,"right",0.5,"1","first_time",0.55,"10",-1,"Hospital",20,"F",-1,0.3,0.55,6,0
"2023",0.515151515151515,-1,"251",FALSE,"right",0.5,"1","first_time",0.5625,"10",-1,"Hospital",20,"F",-1,0.3,0.55,6,0
"2024",0.525252525252525,-1,"914",TRUE,"left",1,"3","first_time",0.5875,"10",-1,"Hospital",20,"F",-1,0.3,0.55,6,0
"2025",0.535353535353535,-1,"529",FALSE,"right",0.5,"1","first_time",0.6,"10",-1,"Hospital",20,"F",-1,0.3,0.55,6,1
"2026",0.545454545454545,-1,"830",FALSE,"right",0.5,"1","first_time",0.6125,"10",-1,"Hospital",20,"F",-1,0.3,0.55,6,1
"2027",0.555555555555556,-1,"488",FALSE,"right",0.5,"1","first_time",0.625,"10",-1,"Hospital",20,"F",-1,0.3,0.55,6,1
"2028",0.565656565656566,-1,"342",FALSE,"right",0.5,"1","first_time",0.6375,"10",-1,"Hospital",20,"F",-1,0.3,0.55,6,1
"2029",0.575757575757576,-1,"92",FALSE,"right",0.5,"1","first_time",0.65,"10",-1,"Hospital",20,"F",-1,0.3,0.55,6,1
"2030",0.585858585858586,-1,"515",FALSE,"right",0.5,"1","first_time",0.6625,"10",-1,"Hospital",20,"F",-1,0.3,0.55,6,1
"2031",0.595959595959596,-1,"26",FALSE,"right",0.5,"1","first_time",0.675,"10",-1,"Hospital",20,"F",-1,0.3,0.55,6,1
"2032",0.606060606060606,-1,"3087",FALSE,"right",0.5,"1","first_time",0.6875,"10",-1,"Hospital",20,"F",-1,0.3,0.55,7,1
"2033",0.616161616161616,-1,"12",FALSE,"right",0.5,"1","first_time",0.7,"10",-1,"Hospital",20,"F",-1,0.3,0.55,7,1
"2034",0.626262626262626,-1,"978",FALSE,"right",0.5,"1","first_time",0.7125,"10",-1,"Hospital",20,"F",-1,0.3,0.55,7,1
"2035",0.636363636363636,-1,"288",FALSE,"right",0.5,"1","first_time",0.725,"10",-1,"Hospital",20,"F",-1,0.3,0.55,7,1
"2036",0.646464646464647,-1,"2117",TRUE,"left",0,"3","first_time",0.725,"10",-1,"Hospital",20,"F",-1,0.3,0.55,7,1
"2037",0.656565656565657,-1,"363",TRUE,"left",1,"3","first_time",0.75,"10",-1,"Hospital",20,"F",-1,0.3,0.55,7,0
"2038",0.666666666666667,-1,"409",FALSE,"right",0.5,"1","first_time",0.7625,"10",-1,"Hospital",20,"F",-1,0.3,0.55,7,1
"2039",0.676767676767677,-1,"314",FALSE,"right",0.5,"1","first_time",0.775,"10",-1,"Hospital",20,"F",-1,0.3,0.55,7,1
"2040",0.686868686868687,-1,"535",FALSE,"right",0.5,"1","first_time",0.7875,"10",-1,"Hospital",20,"F",-1,0.3,0.55,7,1
"2041",0.696969696969697,-1,"365",FALSE,"right",0.5,"1","first_time",0.8,"10",-1,"Hospital",20,"F",-1,0.3,0.55,7,1
"2042",0.707070707070707,-1,"739",FALSE,"right",0.5,"1","first_time",0.8125,"10",-1,"Hospital",20,"F",-1,0.3,0.55,8,1
"2043",0.717171717171717,-1,"278",FALSE,"right",0.5,"1","first_time",0.825,"10",-1,"Hospital",20,"F",-1,0.3,0.55,8,1
"2044",0.727272727272727,-1,"691",FALSE,"right",0.5,"1","first_time",0.8375,"10",-1,"Hospital",20,"F",-1,0.3,0.55,8,1
"2045",0.737373737373737,-1,"531",FALSE,"right",0.5,"1","first_time",0.85,"10",-1,"Hospital",20,"F",-1,0.3,0.55,8,1
"2046",0.747474747474748,-1,"814",FALSE,"right",0.5,"1","first_time",0.8625,"10",-1,"Hospital",20,"F",-1,0.3,0.55,8,1
"2047",0.757575757575758,-1,"319",FALSE,"right",0.5,"1","first_time",0.875,"10",-1,"Hospital",20,"F",-1,0.3,0.55,8,1
"2048",0.767676767676768,-1,"375",FALSE,"right",0.5,"1","first_time",0.8875,"10",-1,"Hospital",20,"F",-1,0.3,0.55,8,1
"2049",0.777777777777778,-1,"396",FALSE,"right",0.5,"1","first_time",0.9,"10",-1,"Hospital",20,"F",-1,0.3,0.55,8,1
"2050",0.787878787878788,-1,"270",FALSE,"right",0.5,"1","first_time",0.9125,"10",-1,"Hospital",20,"F",-1,0.3,0.55,8,1
"2051",0.797979797979798,-1,"312",FALSE,"right",0.5,"1","first_time",0.925,"10",-1,"Hospital",20,"F",-1,0.3,0.55,8,1
"2052",0.808080808080808,-1,"655",TRUE,"left",1,"3","first_time",0.95,"10",-1,"Hospital",20,"F",-1,0.3,0.55,9,1
"2053",0.818181818181818,-1,"421",FALSE,"right",0.5,"1","first_time",0.9625,"10",-1,"Hospital",20,"F",-1,0.3,0.55,9,1
"2054",0.828282828282828,-1,"427",FALSE,"right",0.5,"1","first_time",0.975,"10",-1,"Hospital",20,"F",-1,0.3,0.55,9,1
"2055",0.838383838383838,-1,"512",FALSE,"right",0.5,"1","first_time",0.9875,"10",-1,"Hospital",20,"F",-1,0.3,0.55,9,1
"2056",0.848484848484849,-1,"326",FALSE,"right",0.5,"1","first_time",1,"10",-1,"Hospital",20,"F",-1,0.3,0.55,9,1
"2057",0.858585858585859,-1,"350",FALSE,"right",0.5,"1","first_time",1.0125,"10",-1,"Hospital",20,"F",-1,0.3,0.55,9,1
"2058",0.868686868686869,-1,"596",TRUE,"left",1,"3","first_time",1.0375,"10",-1,"Hospital",20,"F",-1,0.3,0.55,9,1
"2059",0.878787878787879,-1,"343",FALSE,"right",0.5,"1","first_time",1.05,"10",-1,"Hospital",20,"F",-1,0.3,0.55,9,1
"2060",0.888888888888889,-1,"316",FALSE,"right",0.5,"1","first_time",1.0625,"10",-1,"Hospital",20,"F",-1,0.3,0.55,9,1
"2061",0.898989898989899,-1,"395",FALSE,"right",0.5,"1","first_time",1.075,"10",-1,"Hospital",20,"F",-1,0.3,0.55,9,1
"2062",0.909090909090909,-1,"311",FALSE,"right",0.5,"1","first_time",1.0875,"10",-1,"Hospital",20,"F",-1,0.3,0.55,10,1
